{
    "resourceType": "Bundle",
    "id": "adta04",
    "identifier": {
        "value": "14038913245354"
    },
    "type": "message",
    "entry": [
        {
            "fullUrl": "urn:oid:3d4a07cc-ff85-45c2-8f60-202d5506db02",
            "resource": {
                "resourceType": "MessageHeader",
                "id": "3d4a07cc-ff85-45c2-8f60-202d5506db02",
                "event": {
                    "code": "ADT^A04",
                    "display": "ADT^A04"
                },
                "destination": [
                    {
                        "name": "ROUTE"
                    }
                ],
                "sender": {
                    "identifier": {
                        "system": "https://fhir.nhs.uk/Id/ods-organization-code",
                        "value": "RCB"
                    },
                    "display": "RCB"
                },
                "timestamp": "2010-11-01T15:12:00.000+00:00",
                "focus": [
                    {
                        "reference": "urn:oid:38eeb5d7-e689-4ec5-81d2-f51f3011c72c"
                    }
                ]
            }
        },
        {
            "fullUrl": "urn:oid:38eeb5d7-e689-4ec5-81d2-f51f3011c72c",
            "resource": {
                "resourceType": "Encounter",
                "id": "38eeb5d7-e689-4ec5-81d2-f51f3011c72c",
                "identifier": [
                    {
                        "system": "http://terminology.hl7.org/CodeSystem/v2-0203",
                        "value": "2141"
                    }
                ],
                "status": "in-progress",
                "class": {
                    "system": "http://hl7.org/fhir/v3/ActCode",
                    "code": "SS",
                    "display": "short stay"
                },
                "type": [
                    {
                        "coding": [
                            {
                                "system": "https://fhir.nhs.uk/R4/CodeSystem/UKCore-AdmissionMethod",
                                "code": "13"
                            }
                        ]
                    },
                    {
                        "coding": [
                            {
                                "system": "https://fhir.nhs.uk/STU3/CodeSystem/DCH-Specialty-1",
                                "code": "300"
                            }
                        ]
                    }
                ],
                "subject": {
                    "reference": "urn:oid:a4776fe1-6bb4-4e3c-af5b-d48e1ee873b4"
                },
                "participant": [
                    {
                        "type": [
                            {
                                "coding": [
                                    {
                                        "system": "http://hl7.org/fhir/v3/ParticipationType",
                                        "code": "ATND",
                                        "display": "attender"
                                    }
                                ]
                            }
                        ],
                        "individual": {
                            "identifier": {
                                "system": "https://fhir.hl7.org.uk/Id/gmc-number",
                                "value": "C3456789"
                            },
                            "display": "Dr Samuel Darwin"
                        }
                    },
                    {
                        "type": [
                            {
                                "coding": [
                                    {
                                        "system": "http://hl7.org/fhir/v3/ParticipationType",
                                        "code": "ADM",
                                        "display": "admitter"
                                    }
                                ]
                            }
                        ],
                        "individual": {
                            "identifier": {
                                "system": "https://fhir.hl7.org.uk/Id/gmc-number",
                                "value": "C3456789"
                            },
                            "display": "Dr Samuel Darwin"
                        }
                    },
                    {
                        "type": [
                            {
                                "coding": [
                                    {
                                        "system": "http://hl7.org/fhir/v3/ParticipationType",
                                        "code": "CON",
                                        "display": "consultant"
                                    }
                                ]
                            }
                        ],
                        "individual": {
                            "identifier": {
                                "system": "https://fhir.hl7.org.uk/Id/gmc-number",
                                "value": "C3456789"
                            },
                            "display": "Dr Samuel Darwin"
                        }
                    },
                    {
                        "type": [
                            {
                                "coding": [
                                    {
                                        "system": "http://hl7.org/fhir/v3/ParticipationType",
                                        "code": "REF",
                                        "display": "referrer"
                                    }
                                ]
                            }
                        ],
                        "individual": {
                            "identifier": {
                                "system": "https://fhir.hl7.org.uk/Id/gmc-number",
                                "value": "G5612908"
                            },
                            "display": "Dr Gregory Townley"
                        }
                    }
                ],
                "period": {
                    "start": "2010-11-01T16:00:00+00:00"
                },
                "hospitalization": {
                    "admitSource": {
                        "coding": [
                            {
                                "system": "https://fhir.nhs.uk/R4/CodeSystem/UKCore-SourceOfAdmission",
                                "code": "19"
                            }
                        ]
                    }
                },
                "location": [
                    {
                        "location": {
                            "reference": "urn:oid:335f4089-8979-4bd2-96db-6137c1483ecc",
                            "display": "RCB-AWRD"
                        },
                        "status": "active"
                    }
                ]
            }
        },
        {
            "fullUrl": "urn:oid:a4776fe1-6bb4-4e3c-af5b-d48e1ee873b4",
            "resource": {
                "resourceType": "Patient",
                "id": "a4776fe1-6bb4-4e3c-af5b-d48e1ee873b4",
                "identifier": [
                    {
                        "extension": [
                            {
                                "url": "https://fhir.hl7.org.uk/STU3/StructureDefinition/Extension-CareConnect-NHSNumberVerificationStatus-1",
                                "valueCodeableConcept": {
                                    "coding": [
                                        {
                                            "system": "https://fhir.hl7.org.uk/STU3/CodeSystem/CareConnect-NHSNumberVerificationStatus-1",
                                            "code": "01"
                                        }
                                    ]
                                }
                            }
                        ],
                        "system": "https://fhir.nhs.uk/Id/nhs-number",
                        "value": "3333333333"
                    }
                ],
                "name": [
                    {
                        "family": "SMITH",
                        "given": [
                            "FREDRICA"
                        ],
                        "prefix": [
                            "MRS"
                        ]
                    }
                ],
                "telecom": [
                    {
                        "system": "phone",
                        "value": "+441234567890",
                        "use": "home"
                    }
                ],
                "gender": "female",
                "birthDate": "1965-12-13",
                "address": [
                    {
                        "use": "home",
                        "city": "MALTON",
                        "district": "NORTH YORKSHIRE",
                        "postalCode": "YO32 5TT"
                    }
                ],
                "contact": [
                    {
                        "name": {
                            "family": "SMITH",
                            "given": [
                                "FRANCESCA"
                            ],
                            "prefix": [
                                "MRS"
                            ]
                        },
                        "address": {
                            "use": "home",
                            "city": "MALTON",
                            "district": "NORTH YORKSHIRE",
                            "postalCode": "YO32 5TT"
                        }
                    }
                ],
                "generalPractitioner": [
                    {
                        "identifier": {
                            "system": "https://fhir.hl7.org.uk/Id/gmc-number",
                            "value": "G5612908"
                        },
                        "display": "Dr Gregory Townley"
                    }
                ],
                "managingOrganization": {
                    "identifier": {
                        "system": "https://fhir.nhs.uk/Id/ods-organization-code",
                        "value": "Y06601"
                    },
                    "display": "MALTON GP PRACTICE"
                }
            }
        },
        {
            "fullUrl": "urn:oid:335f4089-8979-4bd2-96db-6137c1483ecc",
            "resource": {
                "resourceType": "Location",
                "id": "335f4089-8979-4bd2-96db-6137c1483ecc",
                "identifier": [
                    {
                        "system": "htttps://fhir.xgenome.co.uk/Id/Ward",
                        "value": "RCB-AWRD"
                    }
                ],
                "name": "RCB-AWRD",
                "managingOrganization": {
                    "identifier": {
                        "system": "https://fhir.nhs.uk/Id/ods-organization-code",
                        "value": "West Wing"
                    }
                },
                "partOf": {
                    "identifier": {
                        "system": "https://fhir.nhs.uk/Id/ods-site-code",
                        "value": "RCB55"
                    }
                }
            }
        }
    ]
}