{
  "resourceType": "Bundle",
  "id": "orur01-path",
  "identifier": {
    "value": "3629"
  },
  "type": "message",
  "entry": [
    {
      "fullUrl": "urn:oid:3ad25644-379e-4c15-86ad-1ea7fe517a12",
      "resource": {
        "resourceType": "MessageHeader",
        "id": "3ad25644-379e-4c15-86ad-1ea7fe517a12",
        "text": {
          "status": "generated",
          "div": "<div xmlns=\"http://www.w3.org/1999/xhtml\"><p><b>Generated Narrative with Details</b></p><p><b>id</b>: 3ad25644-379e-4c15-86ad-1ea7fe517a12</p><p><b>event</b>: ORU^R01 (Details: [not stated] code ORU^R01 = 'ORU^R01', stated as 'ORU^R01')</p><h3>Destinations</h3><table class=\"grid\"><tr><td>-</td><td><b>Name</b></td></tr><tr><td>*</td><td>LIS</td></tr></table><p><b>sender</b>: LCA</p><p><b>timestamp</b>: 31 Jul 1998, 15:32:00</p><p><b>focus</b>: </p><ul><li><a href=\"urn:oid:fc2beec5-8f54-4b1f-b578-7e4f8745dc2c\">urn:oid:fc2beec5-8f54-4b1f-b578-7e4f8745dc2c</a></li><li><a href=\"urn:oid:5f16117e-6b4d-4cfb-8589-266949c24d52\">urn:oid:5f16117e-6b4d-4cfb-8589-266949c24d52</a></li></ul></div>"
        },
        "event": {
          "code": "ORU^R01",
          "display": "ORU^R01"
        },
        "destination": [
          {
            "name": "LIS"
          }
        ],
        "sender": {
          "identifier": {
            "system": "https://fhir.nhs.uk/Id/ods-organization-code",
            "value": "LCA"
          },
          "display": "LCA"
        },
        "timestamp": "1998-07-31T15:32:00.000+01:00",
        "focus": [
          {
            "reference": "urn:oid:fc2beec5-8f54-4b1f-b578-7e4f8745dc2c"
          },
          {
            "reference": "urn:oid:5f16117e-6b4d-4cfb-8589-266949c24d52"
          }
        ]
      }
    },
    {
      "fullUrl": "urn:oid:fc2beec5-8f54-4b1f-b578-7e4f8745dc2c",
      "resource": {
        "resourceType": "DiagnosticReport",
        "id": "fc2beec5-8f54-4b1f-b578-7e4f8745dc2c",
        "text": {
          "status": "generated",
          "div": "<div xmlns=\"http://www.w3.org/1999/xhtml\"><p><b>Generated Narrative with Details</b></p><p><b>id</b>: fc2beec5-8f54-4b1f-b578-7e4f8745dc2c</p><p><b>identifier</b>: 8642753100012, 20809880170</p><p><b>status</b>: final</p><p><b>code</b>: UPPER RESPIRATORYCULTURE <span style=\"background: LightGoldenRodYellow\">(Details : {[not stated] code '008342' = '008342', given as 'UPPER RESPIRATORYCULTURE'})</span></p><p><b>subject</b>: <a href=\"urn:oid:0c7313f5-64ea-49f2-8c56-0c01b6f3c74e\">urn:oid:0c7313f5-64ea-49f2-8c56-0c01b6f3c74e</a></p><p><b>effective</b>: 27 Jul 1998, 17:58:00 --&gt; (ongoing)</p><p><b>result</b>: <a href=\"urn:oid:8cadb998-af3d-48f3-94c5-cb954d5ddc14\">urn:oid:8cadb998-af3d-48f3-94c5-cb954d5ddc14</a></p></div>"
        },
        "identifier": [
          {
            "system": "LIS",
            "value": "8642753100012"
          },
          {
            "system": "LCS",
            "value": "20809880170"
          }
        ],
        "status": "final",
        "code": {
          "coding": [
            {
              "code": "008342",
              "display": "UPPER RESPIRATORYCULTURE"
            }
          ]
        },
        "subject": {
          "reference": "urn:oid:0c7313f5-64ea-49f2-8c56-0c01b6f3c74e"
        },
        "effectivePeriod": {
          "start": "1998-07-27T17:58:00+01:00"
        },
        "result": [
          {
            "reference": "urn:oid:8cadb998-af3d-48f3-94c5-cb954d5ddc14"
          }
        ]
      }
    },
    {
      "fullUrl": "urn:oid:8cadb998-af3d-48f3-94c5-cb954d5ddc14",
      "resource": {
        "resourceType": "Observation",
        "id": "8cadb998-af3d-48f3-94c5-cb954d5ddc14",
        "text": {
          "status": "generated",
          "div": "<div xmlns=\"http://www.w3.org/1999/xhtml\"><p><b>Generated Narrative with Details</b></p><p><b>id</b>: 8cadb998-af3d-48f3-94c5-cb954d5ddc14</p><p><b>status</b>: final</p><p><b>code</b>: UPPER RESPIRATORY CULTURE <span style=\"background: LightGoldenRodYellow\">(Details : {[not stated] code '008342' = '008342', given as 'UPPER RESPIRATORY CULTURE'})</span></p><p><b>subject</b>: <a href=\"urn:oid:0c7313f5-64ea-49f2-8c56-0c01b6f3c74e\">urn:oid:0c7313f5-64ea-49f2-8c56-0c01b6f3c74e</a></p><p><b>effective</b>: 27 Jul 1998, 17:58:00 --&gt; (ongoing)</p><p><b>value</b>: FINALREPORT</p></div>"
        },
        "status": "final",
        "code": {
          "coding": [
            {
              "code": "008342",
              "display": "UPPER RESPIRATORY CULTURE"
            }
          ]
        },
        "subject": {
          "reference": "urn:oid:0c7313f5-64ea-49f2-8c56-0c01b6f3c74e"
        },
        "effectivePeriod": {
          "start": "1998-07-27T17:58:00+01:00"
        },
        "valueString": "FINALREPORT"
      }
    },
    {
      "fullUrl": "urn:oid:5f16117e-6b4d-4cfb-8589-266949c24d52",
      "resource": {
        "resourceType": "DiagnosticReport",
        "id": "5f16117e-6b4d-4cfb-8589-266949c24d52",
        "text": {
          "status": "generated",
          "div": "<div xmlns=\"http://www.w3.org/1999/xhtml\"><p><b>Generated Narrative with Details</b></p><p><b>id</b>: 5f16117e-6b4d-4cfb-8589-266949c24d52</p><p><b>identifier</b>: 8642753100012, 20809880170</p><p><b>status</b>: final</p><p><b>code</b>: . <span style=\"background: LightGoldenRodYellow\">(Details : {[not stated] code '997602' = '997602', given as '.'})</span></p><p><b>subject</b>: <a href=\"urn:oid:0c7313f5-64ea-49f2-8c56-0c01b6f3c74e\">urn:oid:0c7313f5-64ea-49f2-8c56-0c01b6f3c74e</a></p><p><b>effective</b>: 27 Jul 1998, 17:58:00 --&gt; (ongoing)</p><p><b>result</b>: </p><ul><li><a href=\"urn:oid:8fdd63ca-b364-4aed-9345-7631b1a0cf1f\">urn:oid:8fdd63ca-b364-4aed-9345-7631b1a0cf1f</a></li><li><a href=\"urn:oid:14173bed-c7fa-4be5-84e9-9d394053b436\">urn:oid:14173bed-c7fa-4be5-84e9-9d394053b436</a></li></ul></div>"
        },
        "identifier": [
          {
            "system": "LIS",
            "value": "8642753100012"
          },
          {
            "system": "LCS",
            "value": "20809880170"
          }
        ],
        "status": "final",
        "code": {
          "coding": [
            {
              "code": "997602",
              "display": "."
            }
          ]
        },
        "subject": {
          "reference": "urn:oid:0c7313f5-64ea-49f2-8c56-0c01b6f3c74e"
        },
        "effectivePeriod": {
          "start": "1998-07-27T17:58:00+01:00"
        },
        "result": [
          {
            "reference": "urn:oid:8fdd63ca-b364-4aed-9345-7631b1a0cf1f"
          },
          {
            "reference": "urn:oid:14173bed-c7fa-4be5-84e9-9d394053b436"
          }
        ]
      }
    },
    {
      "fullUrl": "urn:oid:8fdd63ca-b364-4aed-9345-7631b1a0cf1f",
      "resource": {
        "resourceType": "Observation",
        "id": "8fdd63ca-b364-4aed-9345-7631b1a0cf1f",
        "text": {
          "status": "generated",
          "div": "<div xmlns=\"http://www.w3.org/1999/xhtml\"><p><b>Generated Narrative with Details</b></p><p><b>id</b>: 8fdd63ca-b364-4aed-9345-7631b1a0cf1f</p><p><b>status</b>: final</p><p><b>code</b>: RESULT 1 <span style=\"background: LightGoldenRodYellow\">(Details : {[not stated] code '997231' = '997231', given as 'RESULT 1'})</span></p><p><b>subject</b>: <a href=\"urn:oid:0c7313f5-64ea-49f2-8c56-0c01b6f3c74e\">urn:oid:0c7313f5-64ea-49f2-8c56-0c01b6f3c74e</a></p><p><b>effective</b>: 29 Jul 1998, 16:05:00</p><p><b>value</b>: M415 <span style=\"background: LightGoldenRodYellow\">(Details : {[not stated] code 'M415' = 'M415)</span></p><p><b>comment</b>: MORAXELLA (BRANHAMELLA) CATARRHALIS \r HEAVY GROWTH\r BETA LACTAMASE POSITIVE \r</p></div>"
        },
        "status": "final",
        "code": {
          "coding": [
            {
              "code": "997231",
              "display": "RESULT 1"
            }
          ]
        },
        "subject": {
          "reference": "urn:oid:0c7313f5-64ea-49f2-8c56-0c01b6f3c74e"
        },
        "effectiveDateTime": "1998-07-29T16:05:00+01:00",
        "valueCodeableConcept": {
          "coding": [
            {
              "code": "M415"
            }
          ]
        },
        "comment": "MORAXELLA (BRANHAMELLA) CATARRHALIS \r HEAVY GROWTH\r BETA LACTAMASE POSITIVE \r"
      }
    },
    {
      "fullUrl": "urn:oid:14173bed-c7fa-4be5-84e9-9d394053b436",
      "resource": {
        "resourceType": "Observation",
        "id": "14173bed-c7fa-4be5-84e9-9d394053b436",
        "text": {
          "status": "generated",
          "div": "<div xmlns=\"http://www.w3.org/1999/xhtml\"><p><b>Generated Narrative with Details</b></p><p><b>id</b>: 14173bed-c7fa-4be5-84e9-9d394053b436</p><p><b>status</b>: final</p><p><b>code</b>: RESULT 2 <span style=\"background: LightGoldenRodYellow\">(Details : {[not stated] code '997232' = '997232', given as 'RESULT 2'})</span></p><p><b>subject</b>: <a href=\"urn:oid:0c7313f5-64ea-49f2-8c56-0c01b6f3c74e\">urn:oid:0c7313f5-64ea-49f2-8c56-0c01b6f3c74e</a></p><p><b>effective</b>: 29 Jul 1998, 16:05:00</p><p><b>value</b>: MR105 <span style=\"background: LightGoldenRodYellow\">(Details : {[not stated] code 'MR105' = 'MR105)</span></p><p><b>comment</b>: ROUTINE RESPIRATORY FLORA\r</p></div>"
        },
        "status": "final",
        "code": {
          "coding": [
            {
              "code": "997232",
              "display": "RESULT 2"
            }
          ]
        },
        "subject": {
          "reference": "urn:oid:0c7313f5-64ea-49f2-8c56-0c01b6f3c74e"
        },
        "effectiveDateTime": "1998-07-29T16:05:00+01:00",
        "valueCodeableConcept": {
          "coding": [
            {
              "code": "MR105"
            }
          ]
        },
        "comment": "ROUTINE RESPIRATORY FLORA\r"
      }
    },
    {
      "fullUrl": "urn:oid:0c7313f5-64ea-49f2-8c56-0c01b6f3c74e",
      "resource": {
        "resourceType": "Patient",
        "id": "0c7313f5-64ea-49f2-8c56-0c01b6f3c74e",
        "text": {
          "status": "generated",
          "div": "<div xmlns=\"http://www.w3.org/1999/xhtml\"><p><b>Generated Narrative with Details</b></p><p><b>id</b>: 0c7313f5-64ea-49f2-8c56-0c01b6f3c74e</p><p><b>identifier</b>: 20809880170</p><p><b>name</b>: TESTPAT 20809880170 </p><p><b>birthDate</b>: 1976-09-24</p><p><b>address</b>: 00000-0000 </p></div>"
        },
        "identifier": [
          {
            "value": "20809880170"
          }
        ],
        "name": [
          {
            "family": "20809880170",
            "given": [
              "TESTPAT"
            ]
          }
        ],
        "birthDate": "1976-09-24",
        "address": [
          {
            "postalCode": "00000-0000"
          }
        ]
      }
    }
  ]
}