{
  "resourceType": "Bundle",
  "id": "notification-admit-transaction",
  "identifier": {
    "system": "https://fhir.mytrust.nhs.uk/Id/RCB/PAS",
    "value": "1391320453338055"
  },
  "type": "transaction",
  "entry": [
    {
      "fullUrl": "urn:oid:95675fed-25a6-4d75-8351-49707f9d3360",
      "resource": {
        "resourceType": "MessageHeader",
        "text": {
          "status": "generated",
          "div": "<div xmlns=\"http://www.w3.org/1999/xhtml\"><p><b>Generated Narrative with Details</b></p><p><b>event</b>: notification-admit (Details: [not stated] code notification-admit = 'notification-admit', stated as 'notification-admit')</p><h3>Destinations</h3><table class=\"grid\"><tr><td>-</td><td><b>Name</b></td><td><b>Target</b></td><td><b>Endpoint</b></td></tr><tr><td>*</td><td>ROUTE</td><td>ROUTE</td><td><a href=\"ROUTE\">ROUTE</a></td></tr></table><p><b>sender</b>: RCB</p><h3>Sources</h3><table class=\"grid\"><tr><td>-</td><td><b>Name</b></td><td><b>Endpoint</b></td></tr><tr><td>*</td><td>PAS</td><td><a href=\"PAS\">PAS</a></td></tr></table><p><b>focus</b>: </p><ul><li><a href=\"#urnoid506ab3bc-8efa-40bc-a7ad-1643d467eb4f\">Generated Summary: unknown resource entry</a></li><li><a href=\"#urnoida1cf4e55-a7bb-4867-a2bb-07619a67edd7\">Generated Summary: unknown resource entry</a></li><li><a href=\"#urnoid1af1046d-f398-41d6-8ecc-be8ecf4c9ccd\">Generated Summary: unknown resource entry</a></li></ul></div>"
        },
        "eventCoding": {
          "code": "notification-admit",
          "display": "notification-admit"
        },
        "destination": [
          {
            "name": "ROUTE",
            "target": {
              "display": "ROUTE"
            },
            "endpoint": "ROUTE"
          }
        ],
        "sender": {
          "identifier": {
            "system": "https://fhir.nhs.uk/Id/ods-organization-code",
            "value": "RCB"
          },
          "display": "RCB"
        },
        "source": {
          "name": "PAS",
          "endpoint": "PAS"
        },
        "focus": [
          {
            "reference": "urn:oid:506ab3bc-8efa-40bc-a7ad-1643d467eb4f"
          },
          {
            "reference": "urn:oid:a1cf4e55-a7bb-4867-a2bb-07619a67edd7"
          },
          {
            "reference": "urn:oid:1af1046d-f398-41d6-8ecc-be8ecf4c9ccd"
          }
        ]
      },
      "request": {
        "method": "POST",
        "url": "MessageHeader"
      }
    },
    {
      "fullUrl": "urn:oid:506ab3bc-8efa-40bc-a7ad-1643d467eb4f",
      "resource": {
        "resourceType": "Encounter",
        "text": {
          "status": "generated",
          "div": "<div xmlns=\"http://www.w3.org/1999/xhtml\"><p><b>Generated Narrative with Details</b></p><p><b>identifier</b>: 2139</p><p><b>status</b>: in-progress</p><p><b>class</b>: inpatient encounter (Details: http://terminology.hl7.org/CodeSystem/v3-ActCode code IMP = 'inpatient encounter', stated as 'inpatient encounter')</p><p><b>type</b>: Planned <span style=\"background: LightGoldenRodYellow\">(Details : {https://fhir.nhs.uk/R4/CodeSystem/UKCore-AdmissionMethod code '13' = 'Planned)</span>, 300 <span style=\"background: LightGoldenRodYellow\">(Details : {https://fhir.nhs.uk/STU3/CodeSystem/DCH-Specialty-1 code '300' = '300)</span></p><p><b>subject</b>: <a href=\"#urnoid29703a7e-238a-4510-a249-ec68ffc8d69c\">Generated Summary: unknown resource entry</a></p><blockquote><p><b>participant</b></p><p><b>type</b>: attender <span style=\"background: LightGoldenRodYellow\">(Details : {http://terminology.hl7.org/CodeSystem/v3-ParticipationType code 'ATND' = 'attender', given as 'attender'})</span></p><p><b>individual</b>: Dr Samuel Darwin</p></blockquote><blockquote><p><b>participant</b></p><p><b>type</b>: consultant <span style=\"background: LightGoldenRodYellow\">(Details : {http://terminology.hl7.org/CodeSystem/v3-ParticipationType code 'CON' = 'consultant', given as 'consultant'})</span></p><p><b>individual</b>: Dr Samuel Darwin</p></blockquote><blockquote><p><b>participant</b></p><p><b>type</b>: referrer <span style=\"background: LightGoldenRodYellow\">(Details : {http://terminology.hl7.org/CodeSystem/v3-ParticipationType code 'REF' = 'referrer', given as 'referrer'})</span></p><p><b>individual</b>: Dr Gregory Townley</p></blockquote><p><b>period</b>: 20 Oct 2010, 17:16:00 --&gt; (ongoing)</p><h3>Hospitalizations</h3><table class=\"grid\"><tr><td>-</td><td><b>AdmitSource</b></td></tr><tr><td>*</td><td>Usual place of residence unless listed below, for example, a private dwelling whether owner occupied or owned by Local Authority, housing association or other landlord. This includes wardened accommodation but not residential accommodation where health care is provided. It also includes Patients with no fixed abode. <span style=\"background: LightGoldenRodYellow\">(Details : {https://fhir.nhs.uk/R4/CodeSystem/UKCore-SourceOfAdmission code '19' = 'Usual place of residence unless listed below, for example, a private dwelling whether owner occupied or owned by Local Authority, housing association or other landlord. This includes wardened accommodation but not residential accommodation where health care is provided. It also includes Patients with no fixed abode.)</span></td></tr></table><h3>Locations</h3><table class=\"grid\"><tr><td>-</td><td><b>Location</b></td><td><b>Status</b></td></tr><tr><td>*</td><td><a href=\"#urnoiddadd1c2a-e09e-4b86-b3e3-81da2d3ac5ef\">OBS1. Generated Summary: unknown resource entry</a></td><td>active</td></tr></table></div>"
        },
        "identifier": [
          {
            "system": "http://terminology.hl7.org/CodeSystem/v2-0203",
            "value": "2139"
          }
        ],
        "status": "in-progress",
        "class": {
          "system": "http://terminology.hl7.org/CodeSystem/v3-ActCode",
          "code": "IMP",
          "display": "inpatient encounter"
        },
        "type": [
          {
            "coding": [
              {
                "system": "https://fhir.nhs.uk/R4/CodeSystem/UKCore-AdmissionMethod",
                "code": "13"
              }
            ]
          },
          {
            "coding": [
              {
                "system": "https://fhir.nhs.uk/STU3/CodeSystem/DCH-Specialty-1",
                "code": "300"
              }
            ]
          }
        ],
        "subject": {
          "reference": "urn:oid:29703a7e-238a-4510-a249-ec68ffc8d69c"
        },
        "participant": [
          {
            "type": [
              {
                "coding": [
                  {
                    "system": "http://terminology.hl7.org/CodeSystem/v3-ParticipationType",
                    "code": "ATND",
                    "display": "attender"
                  }
                ]
              }
            ],
            "individual": {
              "identifier": {
                "system": "https://fhir.hl7.org.uk/Id/gmc-number",
                "value": "C3456789"
              },
              "display": "Dr Samuel Darwin"
            }
          },
          {
            "type": [
              {
                "coding": [
                  {
                    "system": "http://terminology.hl7.org/CodeSystem/v3-ParticipationType",
                    "code": "CON",
                    "display": "consultant"
                  }
                ]
              }
            ],
            "individual": {
              "identifier": {
                "system": "https://fhir.hl7.org.uk/Id/gmc-number",
                "value": "C3456789"
              },
              "display": "Dr Samuel Darwin"
            }
          },
          {
            "type": [
              {
                "coding": [
                  {
                    "system": "http://terminology.hl7.org/CodeSystem/v3-ParticipationType",
                    "code": "REF",
                    "display": "referrer"
                  }
                ]
              }
            ],
            "individual": {
              "identifier": {
                "system": "https://fhir.hl7.org.uk/Id/gmc-number",
                "value": "G5612908"
              },
              "display": "Dr Gregory Townley"
            }
          }
        ],
        "period": {
          "start": "2010-10-20T17:16:00+01:00"
        },
        "hospitalization": {
          "admitSource": {
            "coding": [
              {
                "system": "https://fhir.nhs.uk/R4/CodeSystem/UKCore-SourceOfAdmission",
                "code": "19"
              }
            ]
          }
        },
        "location": [
          {
            "location": {
              "reference": "urn:oid:dadd1c2a-e09e-4b86-b3e3-81da2d3ac5ef",
              "display": "OBS1"
            },
            "status": "active"
          }
        ]
      },
      "request": {
        "method": "POST",
        "url": "Encounter",
        "ifNoneExist": "Encounter?identifier=http://terminology.hl7.org/CodeSystem/v2-0203|2139"
      }
    },
    {
      "fullUrl": "urn:oid:29703a7e-238a-4510-a249-ec68ffc8d69c",
      "resource": {
        "resourceType": "Patient",
        "text": {
          "status": "generated",
          "div": "<div xmlns=\"http://www.w3.org/1999/xhtml\"><p><b>Generated Narrative with Details</b></p><p><b>identifier</b>: 3333333333</p><p><b>name</b>: FREDRICA SMITH </p><p><b>telecom</b>: ph: +441234567890(HOME)</p><p><b>gender</b>: female</p><p><b>birthDate</b>: 1965-12-13</p><p><b>address</b>: MALTON YO32 5TT (HOME)</p><h3>Contacts</h3><table class=\"grid\"><tr><td>-</td><td><b>Name</b></td><td><b>Address</b></td></tr><tr><td>*</td><td>ALBERT SMITH </td><td>MALTON YO32 5TT (HOME)</td></tr></table><p><b>generalPractitioner</b>: Dr Gregory Townley</p><p><b>managingOrganization</b>: MALTON GP PRACTICE</p></div>"
        },
        "identifier": [
          {
            "extension": [
              {
                "url": "https://fhir.hl7.org.uk/STU3/StructureDefinition/Extension-CareConnect-NHSNumberVerificationStatus-1",
                "valueCodeableConcept": {
                  "coding": [
                    {
                      "system": "https://fhir.hl7.org.uk/STU3/CodeSystem/CareConnect-NHSNumberVerificationStatus-1",
                      "code": "01"
                    }
                  ]
                }
              }
            ],
            "system": "https://fhir.nhs.uk/Id/nhs-number",
            "value": "3333333333"
          }
        ],
        "name": [
          {
            "family": "SMITH",
            "given": [
              "FREDRICA"
            ],
            "prefix": [
              "MRS"
            ]
          }
        ],
        "telecom": [
          {
            "system": "phone",
            "value": "+441234567890",
            "use": "home"
          }
        ],
        "gender": "female",
        "birthDate": "1965-12-13",
        "address": [
          {
            "use": "home",
            "city": "MALTON",
            "district": "NORTH YORKSHIRE",
            "postalCode": "YO32 5TT"
          }
        ],
        "contact": [
          {
            "name": {
              "family": "SMITH",
              "given": [
                "ALBERT"
              ],
              "prefix": [
                "MR"
              ]
            },
            "address": {
              "use": "home",
              "city": "MALTON",
              "district": "NORTH YORKSHIRE",
              "postalCode": "YO32 5TT"
            }
          }
        ],
        "generalPractitioner": [
          {
            "identifier": {
              "system": "https://fhir.hl7.org.uk/Id/gmc-number",
              "value": "G5612908"
            },
            "display": "Dr Gregory Townley"
          }
        ],
        "managingOrganization": {
          "identifier": {
            "system": "https://fhir.nhs.uk/Id/ods-organization-code",
            "value": "Y06601"
          },
          "display": "MALTON GP PRACTICE"
        }
      },
      "request": {
        "method": "POST",
        "url": "Patient",
        "ifNoneExist": "Patient?identifier=https://fhir.nhs.uk/Id/nhs-number|3333333333"
      }
    },
    {
      "fullUrl": "urn:oid:dadd1c2a-e09e-4b86-b3e3-81da2d3ac5ef",
      "resource": {
        "resourceType": "Location",
        "text": {
          "status": "generated",
          "div": "<div xmlns=\"http://www.w3.org/1999/xhtml\"><p><b>Generated Narrative with Details</b></p><p><b>identifier</b>: OBS1</p><p><b>name</b>: OBS1</p><p><b>managingOrganization</b>: </p><p><b>partOf</b>: </p></div>"
        },
        "identifier": [
          {
            "system": "https://fhir.myepr.co.uk/Id/Ward",
            "value": "OBS1"
          }
        ],
        "name": "OBS1",
        "managingOrganization": {
          "identifier": {
            "system": "https://fhir.nhs.uk/Id/ods-organization-code",
            "value": "RCB"
          }
        },
        "partOf": {
          "identifier": {
            "system": "https://fhir.nhs.uk/Id/ods-site-code",
            "value": "RCB55"
          }
        }
      },
      "request": {
        "method": "POST",
        "url": "Location",
        "ifNoneExist": "Location?identifier=https://fhir.myepr.co.uk/Id/Ward|OBS1"
      }
    },
    {
      "fullUrl": "urn:oid:a1cf4e55-a7bb-4867-a2bb-07619a67edd7",
      "resource": {
        "resourceType": "Condition",
        "text": {
          "status": "generated",
          "div": "<div xmlns=\"http://www.w3.org/1999/xhtml\"><p><b>Generated Narrative with Details</b></p><p><b>identifier</b>: 2139-N39.3</p><p><b>clinicalStatus</b>: Active <span style=\"background: LightGoldenRodYellow\">(Details : {http://terminology.hl7.org/CodeSystem/condition-clinical code 'active' = 'Active)</span></p><p><b>code</b>: Stress Incontinence <span style=\"background: LightGoldenRodYellow\">(Details : {http://hl7.org/fhir/sid/icd-10 code 'N39.3' = 'N39.3', given as 'Stress Incontinence'})</span></p><p><b>subject</b>: <a href=\"#urnoid29703a7e-238a-4510-a249-ec68ffc8d69c\">Generated Summary: unknown resource entry</a></p><p><b>encounter</b>: <a href=\"#urnoid506ab3bc-8efa-40bc-a7ad-1643d467eb4f\">Generated Summary: unknown resource entry</a></p><p><b>onset</b>: 9 Oct 2010, 09:00:00</p><p><b>asserter</b>: Dr Samuel Darwin</p></div>"
        },
        "identifier": [
          {
            "system": "http://terminology.hl7.org/CodeSystem/v2-0203",
            "value": "2139-N39.3"
          }
        ],
        "clinicalStatus": {
          "coding": [
            {
              "system": "http://terminology.hl7.org/CodeSystem/condition-clinical",
              "code": "active"
            }
          ]
        },
        "code": {
          "coding": [
            {
              "system": "http://hl7.org/fhir/sid/icd-10",
              "code": "N39.3",
              "display": "Stress Incontinence"
            }
          ]
        },
        "subject": {
          "reference": "urn:oid:29703a7e-238a-4510-a249-ec68ffc8d69c"
        },
        "encounter": {
          "reference": "urn:oid:506ab3bc-8efa-40bc-a7ad-1643d467eb4f"
        },
        "onsetDateTime": "2010-10-09T09:00:00+01:00",
        "asserter": {
          "identifier": {
            "system": "https://fhir.hl7.org.uk/Id/gmc-number",
            "value": "C3456789"
          },
          "display": "Dr Samuel Darwin"
        }
      },
      "request": {
        "method": "POST",
        "url": "Condition",
        "ifNoneExist": "Condition?identifier=http://terminology.hl7.org/CodeSystem/v2-0203|2139-N39.3"
      }
    },
    {
      "fullUrl": "urn:oid:1af1046d-f398-41d6-8ecc-be8ecf4c9ccd",
      "resource": {
        "resourceType": "Procedure",
        "text": {
          "status": "generated",
          "div": "<div xmlns=\"http://www.w3.org/1999/xhtml\"><p><b>Generated Narrative with Details</b></p><p><b>identifier</b>: 2139-ZZS4</p><p><b>status</b>: completed</p><p><b>code</b>: Colonic examination <span style=\"background: LightGoldenRodYellow\">(Details : {https://fhir.nhs.uk/Id/opcs-4 code 'ZZS4' = 'ZZS4', given as 'Colonic examination'})</span></p><p><b>subject</b>: <a href=\"#urnoid29703a7e-238a-4510-a249-ec68ffc8d69c\">Generated Summary: unknown resource entry</a></p><p><b>encounter</b>: <a href=\"#urnoid506ab3bc-8efa-40bc-a7ad-1643d467eb4f\">Generated Summary: unknown resource entry</a></p><p><b>performed</b>: 20 Oct 2010, 20:56:00</p><h3>Performers</h3><table class=\"grid\"><tr><td>-</td><td><b>Actor</b></td></tr><tr><td>*</td><td>Dr Samuel Darwin</td></tr></table></div>"
        },
        "identifier": [
          {
            "system": "http://terminology.hl7.org/CodeSystem/v2-0203",
            "value": "2139-ZZS4"
          }
        ],
        "status": "completed",
        "code": {
          "coding": [
            {
              "system": "https://fhir.nhs.uk/Id/opcs-4",
              "code": "ZZS4",
              "display": "Colonic examination"
            }
          ]
        },
        "subject": {
          "reference": "urn:oid:29703a7e-238a-4510-a249-ec68ffc8d69c"
        },
        "encounter": {
          "reference": "urn:oid:506ab3bc-8efa-40bc-a7ad-1643d467eb4f"
        },
        "performedDateTime": "2010-10-20T20:56:00+01:00",
        "performer": [
          {
            "actor": {
              "identifier": {
                "system": "https://fhir.hl7.org.uk/Id/gmc-number",
                "value": "C3456789"
              },
              "display": "Dr Samuel Darwin"
            }
          }
        ]
      },
      "request": {
        "method": "POST",
        "url": "Procedure",
        "ifNoneExist": "Procedure?identifier=http://terminology.hl7.org/CodeSystem/v2-0203|2139-ZZS4"
      }
    }
  ]
}