<?xml version="1.0" encoding="UTF-8"?>

<Bundle xmlns="http://hl7.org/fhir">
  <id value="notification-discharge"/>
  <identifier>
    <system value="https://fhir.mytrust.nhs.uk/Id/RCB/MATSYSTEM"/>
    <value value="13403891320453338089"/>
  </identifier>
  <type value="message"/>
  <entry>
    <fullUrl value="urn:oid:1e1e200b-8410-48b7-abe7-9e9e59eab067"/>
    <resource>
      <MessageHeader>
        <id value="1e1e200b-8410-48b7-abe7-9e9e59eab067"/>
        <text>
          <status value="generated"/><div xmlns="http://www.w3.org/1999/xhtml"><p><b>Generated Narrative with Details</b></p><p><b>id</b>: 1e1e200b-8410-48b7-abe7-9e9e59eab067</p><p><b>event</b>: notification-discharge (Details: [not stated] code notification-discharge = 'notification-discharge', stated as 'notification-discharge')</p><h3>Destinations</h3><table class="grid"><tr><td>-</td><td><b>Name</b></td><td><b>Target</b></td><td><b>Endpoint</b></td></tr><tr><td>*</td><td>PAS</td><td>PAS</td><td><a href="PAS">PAS</a></td></tr></table><p><b>sender</b>: RCB</p><h3>Sources</h3><table class="grid"><tr><td>-</td><td><b>Name</b></td><td><b>Endpoint</b></td></tr><tr><td>*</td><td>MATSYSTEM</td><td><a href="MATSYSTEM">MATSYSTEM</a></td></tr></table><p><b>focus</b>: <a href="urn:oid:d183a526-a507-458b-ac79-5c09b62e5c76">urn:oid:d183a526-a507-458b-ac79-5c09b62e5c76</a></p></div>
        </text>
        <eventCoding>
          <code value="notification-discharge"/>
          <display value="notification-discharge"/>
        </eventCoding>
        <destination>
          <name value="PAS"/>
          <target>
            <display value="PAS"/>
          </target>
          <endpoint value="PAS"/>
        </destination>
        <sender>
          <identifier>
            <system value="https://fhir.nhs.uk/Id/ods-organization-code"/>
            <value value="RCB"/>
          </identifier>
          <display value="RCB"/>
        </sender>
        <source>
          <name value="MATSYSTEM"/>
          <endpoint value="MATSYSTEM"/>
        </source>
        <focus>
          <reference value="urn:oid:d183a526-a507-458b-ac79-5c09b62e5c76"/>
        </focus>
      </MessageHeader>
    </resource>
  </entry>
  <entry>
    <fullUrl value="urn:oid:d183a526-a507-458b-ac79-5c09b62e5c76"/>
    <resource>
      <Encounter>
        <id value="d183a526-a507-458b-ac79-5c09b62e5c76"/>
        <text>
          <status value="generated"/><div xmlns="http://www.w3.org/1999/xhtml"><p><b>Generated Narrative with Details</b></p><p><b>id</b>: d183a526-a507-458b-ac79-5c09b62e5c76</p><p><b>identifier</b>: 11554</p><p><b>status</b>: finished</p><p><b>class</b>: short stay (Details: http://terminology.hl7.org/CodeSystem/v3-ActCode code SS = 'short stay', stated as 'short stay')</p><p><b>type</b>: 82 <span style="background: LightGoldenRodYellow">(Details : {https://fhir.nhs.uk/R4/CodeSystem/UKCore-AdmissionMethod code '82' = '82)</span>, 500 <span style="background: LightGoldenRodYellow">(Details : {https://fhir.nhs.uk/STU3/CodeSystem/DCH-Specialty-1 code '500' = '500)</span></p><p><b>subject</b>: <a href="urn:oid:758da98d-81b8-42a7-9e7c-187ce09a138b">urn:oid:758da98d-81b8-42a7-9e7c-187ce09a138b</a></p><blockquote><p><b>participant</b></p><p><b>type</b>: attender <span style="background: LightGoldenRodYellow">(Details : {http://terminology.hl7.org/CodeSystem/v3-ParticipationType code 'ATND' = 'attender', given as 'attender'})</span></p><p><b>individual</b>: Dr Samuel Darwin</p></blockquote><blockquote><p><b>participant</b></p><p><b>type</b>: admitter <span style="background: LightGoldenRodYellow">(Details : {http://terminology.hl7.org/CodeSystem/v3-ParticipationType code 'ADM' = 'admitter', given as 'admitter'})</span></p><p><b>individual</b>: Dr Samuel Darwin</p></blockquote><blockquote><p><b>participant</b></p><p><b>type</b>: consultant <span style="background: LightGoldenRodYellow">(Details : {http://terminology.hl7.org/CodeSystem/v3-ParticipationType code 'CON' = 'consultant', given as 'consultant'})</span></p><p><b>individual</b>: Dr Samuel Darwin</p></blockquote><p><b>period</b>: 30 Mar 2010, 11:00:00 --&gt; 31 Mar 2010, 17:15:00</p><h3>Hospitalizations</h3><table class="grid"><tr><td>-</td><td><b>AdmitSource</b></td><td><b>DischargeDisposition</b></td></tr><tr><td>*</td><td>79 <span style="background: LightGoldenRodYellow">(Details : {https://fhir.nhs.uk/R4/CodeSystem/UKCore-SourceOfAdmission code '79' = '79)</span></td><td>19 <span style="background: LightGoldenRodYellow">(Details : {https://fhir.nhs.uk/R4/CodeSystem/UKCore-DischargeMethod code '19' = '19)</span></td></tr></table><h3>Locations</h3><table class="grid"><tr><td>-</td><td><b>Location</b></td><td><b>Status</b></td></tr><tr><td>*</td><td><a href="urn:oid:521ce9b3-7698-44c6-aa04-01278c17221f">MATWRD</a></td><td>active</td></tr></table></div>
        </text>
        <identifier>
          <system value="http://terminology.hl7.org/CodeSystem/v2-0203"/>
          <value value="11554"/>
        </identifier>
        <status value="finished"/>
        <class>
          <system value="http://terminology.hl7.org/CodeSystem/v3-ActCode"/>
          <code value="SS"/>
          <display value="short stay"/>
        </class>
        <type>
          <coding>
            <system value="https://fhir.nhs.uk/R4/CodeSystem/UKCore-AdmissionMethod"/>
            <code value="82"/>
          </coding>
        </type>
        <type>
          <coding>
            <system value="https://fhir.nhs.uk/STU3/CodeSystem/DCH-Specialty-1"/>
            <code value="500"/>
          </coding>
        </type>
        <subject>
          <reference value="urn:oid:758da98d-81b8-42a7-9e7c-187ce09a138b"/>
        </subject>
        <participant>
          <type>
            <coding>
              <system value="http://terminology.hl7.org/CodeSystem/v3-ParticipationType"/>
              <code value="ATND"/>
              <display value="attender"/>
            </coding>
          </type>
          <individual>
            <identifier>
              <system value="https://fhir.hl7.org.uk/Id/gmc-number"/>
              <value value="C3456789"/>
            </identifier>
            <display value="Dr Samuel Darwin"/>
          </individual>
        </participant>
        <participant>
          <type>
            <coding>
              <system value="http://terminology.hl7.org/CodeSystem/v3-ParticipationType"/>
              <code value="ADM"/>
              <display value="admitter"/>
            </coding>
          </type>
          <individual>
            <identifier>
              <system value="https://fhir.hl7.org.uk/Id/gmc-number"/>
              <value value="C3456789"/>
            </identifier>
            <display value="Dr Samuel Darwin"/>
          </individual>
        </participant>
        <participant>
          <type>
            <coding>
              <system value="http://terminology.hl7.org/CodeSystem/v3-ParticipationType"/>
              <code value="CON"/>
              <display value="consultant"/>
            </coding>
          </type>
          <individual>
            <identifier>
              <system value="https://fhir.hl7.org.uk/Id/gmc-number"/>
              <value value="C3456789"/>
            </identifier>
            <display value="Dr Samuel Darwin"/>
          </individual>
        </participant>
        <period>
          <start value="2010-03-30T11:00:00+01:00"/>
          <end value="2010-03-31T17:15:00+01:00"/>
        </period>
        <hospitalization>
          <admitSource>
            <coding>
              <system value="https://fhir.nhs.uk/R4/CodeSystem/UKCore-SourceOfAdmission"/>
              <code value="79"/>
            </coding>
          </admitSource>
          <dischargeDisposition>
            <coding>
              <system value="https://fhir.nhs.uk/R4/CodeSystem/UKCore-DischargeMethod"/>
              <code value="19"/>
            </coding>
          </dischargeDisposition>
        </hospitalization>
        <location>
          <location>
            <reference value="urn:oid:521ce9b3-7698-44c6-aa04-01278c17221f"/>
            <display value="MATWRD"/>
          </location>
          <status value="active"/>
        </location>
      </Encounter>
    </resource>
  </entry>
  <entry>
    <fullUrl value="urn:oid:758da98d-81b8-42a7-9e7c-187ce09a138b"/>
    <resource>
      <Patient>
        <id value="758da98d-81b8-42a7-9e7c-187ce09a138b"/>
        <text>
          <status value="generated"/><div xmlns="http://www.w3.org/1999/xhtml"><p><b>Generated Narrative with Details</b></p><p><b>id</b>: 758da98d-81b8-42a7-9e7c-187ce09a138b</p><p><b>identifier</b>: 3333333333</p><p><b>name</b>: FREDRICA SMITH </p><p><b>telecom</b>: ph: +441234567890(HOME)</p><p><b>gender</b>: female</p><p><b>birthDate</b>: 1965-12-13</p><p><b>address</b>: MALTON YO32 5TT (HOME)</p><p><b>generalPractitioner</b>: Dr Gregory Townley</p><p><b>managingOrganization</b>: MALTON GP PRACTICE</p></div>
        </text>
        <identifier>
          <extension url="https://fhir.hl7.org.uk/STU3/StructureDefinition/Extension-CareConnect-NHSNumberVerificationStatus-1">
            <valueCodeableConcept>
              <coding>
                <system value="https://fhir.hl7.org.uk/STU3/CodeSystem/CareConnect-NHSNumberVerificationStatus-1"/>
                <code value="01"/>
              </coding>
            </valueCodeableConcept>
          </extension>
          <system value="https://fhir.nhs.uk/Id/nhs-number"/>
          <value value="3333333333"/>
        </identifier>
        <name>
          <family value="SMITH"/>
          <given value="FREDRICA"/>
          <prefix value="MRS"/>
        </name>
        <telecom>
          <system value="phone"/>
          <value value="+441234567890"/>
          <use value="home"/>
        </telecom>
        <gender value="female"/>
        <birthDate value="1965-12-13"/>
        <address>
          <use value="home"/>
          <city value="MALTON"/>
          <district value="NORTH YORKSHIRE"/>
          <postalCode value="YO32 5TT"/>
        </address>
        <generalPractitioner>
          <identifier>
            <system value="https://fhir.hl7.org.uk/Id/gmc-number"/>
            <value value="G5612908"/>
          </identifier>
          <display value="Dr Gregory Townley"/>
        </generalPractitioner>
        <managingOrganization>
          <identifier>
            <system value="https://fhir.nhs.uk/Id/ods-organization-code"/>
            <value value="Y06601"/>
          </identifier>
          <display value="MALTON GP PRACTICE"/>
        </managingOrganization>
      </Patient>
    </resource>
  </entry>
  <entry>
    <fullUrl value="urn:oid:521ce9b3-7698-44c6-aa04-01278c17221f"/>
    <resource>
      <Location>
        <id value="521ce9b3-7698-44c6-aa04-01278c17221f"/>
        <text>
          <status value="generated"/><div xmlns="http://www.w3.org/1999/xhtml"><p><b>Generated Narrative with Details</b></p><p><b>id</b>: 521ce9b3-7698-44c6-aa04-01278c17221f</p><p><b>identifier</b>: MATWRD</p><p><b>name</b>: MATWRD</p><p><b>managingOrganization</b>: </p><p><b>partOf</b>: </p></div>
        </text>
        <identifier>
          <system value="https://fhir.myepr.co.uk/Id/Ward"/>
          <value value="MATWRD"/>
        </identifier>
        <name value="MATWRD"/>
        <managingOrganization>
          <identifier>
            <system value="https://fhir.nhs.uk/Id/ods-organization-code"/>
            <value value="RCB"/>
          </identifier>
        </managingOrganization>
        <partOf>
          <identifier>
            <system value="https://fhir.nhs.uk/Id/ods-site-code"/>
            <value value="RCB55"/>
          </identifier>
        </partOf>
      </Location>
    </resource>
  </entry>
</Bundle>