{
  "resourceType": "Bundle",
  "id": "news2-report-transaction",
  "identifier": {
    "system": "https://fhir.mytrust.nhs.uk/Id/RCB/PAS",
    "value": "14038913245354"
  },
  "type": "transaction",
  "entry": [
    {
      "fullUrl": "urn:oid:22ed2deb-effa-408c-9437-d3c4975ff448",
      "resource": {
        "resourceType": "MessageHeader",
        "text": {
          "status": "generated",
          "div": "<div xmlns=\"http://www.w3.org/1999/xhtml\"><p><b>Generated Narrative with Details</b></p><p><b>event</b>: ORU^R01 (Details: [not stated] code ORU^R01 = 'ORU^R01', stated as 'ORU^R01')</p><h3>Destinations</h3><table class=\"grid\"><tr><td>-</td><td><b>Name</b></td><td><b>Target</b></td><td><b>Endpoint</b></td></tr><tr><td>*</td><td>ROUTE</td><td>ROUTE</td><td><a href=\"ROUTE\">ROUTE</a></td></tr></table><p><b>sender</b>: RCB</p><h3>Sources</h3><table class=\"grid\"><tr><td>-</td><td><b>Name</b></td><td><b>Endpoint</b></td></tr><tr><td>*</td><td>PAS</td><td><a href=\"PAS\">PAS</a></td></tr></table><p><b>focus</b>: <a href=\"#urnoid3915b469-57b7-470f-942f-e276c4458d63\">Generated Summary: unknown resource entry</a></p></div>"
        },
        "eventCoding": {
          "code": "ORU^R01",
          "display": "ORU^R01"
        },
        "destination": [
          {
            "name": "ROUTE",
            "target": {
              "display": "ROUTE"
            },
            "endpoint": "ROUTE"
          }
        ],
        "sender": {
          "identifier": {
            "system": "https://fhir.nhs.uk/Id/ods-organization-code",
            "value": "RCB"
          },
          "display": "RCB"
        },
        "source": {
          "name": "PAS",
          "endpoint": "PAS"
        },
        "focus": [
          {
            "reference": "urn:oid:3915b469-57b7-470f-942f-e276c4458d63"
          }
        ]
      },
      "request": {
        "method": "POST",
        "url": "MessageHeader"
      }
    },
    {
      "fullUrl": "urn:oid:3915b469-57b7-470f-942f-e276c4458d63",
      "resource": {
        "resourceType": "DiagnosticReport",
        "text": {
          "status": "generated",
          "div": "<div xmlns=\"http://www.w3.org/1999/xhtml\"><p><b>Generated Narrative with Details</b></p><p><b>identifier</b>: 108512374</p><p><b>status</b>: unknown</p><p><b>code</b>: Vital Signs <span style=\"background: LightGoldenRodYellow\">(Details : {SNOMED CT code '118227000' = 'Vital signs finding', given as 'Vital Signs'})</span></p><p><b>subject</b>: <a href=\"#urnoidd980f514-8d01-4d6b-9b52-29436fda1231\">Generated Summary: unknown resource entry</a></p><p><b>effective</b>: 21 May 2018, 13:45:05 --&gt; (ongoing)</p><p><b>result</b>: </p><ul><li><a href=\"#urnoid11842d63-f473-4374-a00d-4caffc94c0f5\">Generated Summary: unknown resource entry</a></li><li><a href=\"#urnoid926b9534-c247-45da-916c-b5bbbfb3da6d\">Generated Summary: unknown resource entry</a></li><li><a href=\"#urnoidac30fbfd-a166-4ebf-acd0-89fc6a8e5e46\">Generated Summary: unknown resource entry</a></li><li><a href=\"#urnoid87e13a1f-0173-415a-9f5d-66ac2746b382\">Generated Summary: unknown resource entry</a></li><li><a href=\"#urnoid3d69129a-7c83-4fa4-adbb-d21a8d5d7d92\">Generated Summary: unknown resource entry</a></li><li><a href=\"#urnoid6c87c7b5-632f-431d-b15d-fad1d93d360c\">Generated Summary: unknown resource entry</a></li></ul></div>"
        },
        "identifier": [
          {
            "system": "https://fhir.mytrust.nhs.uk/Id/NK",
            "value": "108512374"
          }
        ],
        "status": "unknown",
        "code": {
          "coding": [
            {
              "system": "http://snomed.info/sct",
              "code": "118227000",
              "display": "Vital Signs"
            }
          ]
        },
        "subject": {
          "reference": "urn:oid:d980f514-8d01-4d6b-9b52-29436fda1231"
        },
        "effectivePeriod": {
          "start": "2018-05-21T13:45:05+01:00"
        },
        "result": [
          {
            "reference": "urn:oid:11842d63-f473-4374-a00d-4caffc94c0f5"
          },
          {
            "reference": "urn:oid:926b9534-c247-45da-916c-b5bbbfb3da6d"
          },
          {
            "reference": "urn:oid:ac30fbfd-a166-4ebf-acd0-89fc6a8e5e46"
          },
          {
            "reference": "urn:oid:87e13a1f-0173-415a-9f5d-66ac2746b382"
          },
          {
            "reference": "urn:oid:3d69129a-7c83-4fa4-adbb-d21a8d5d7d92"
          },
          {
            "reference": "urn:oid:6c87c7b5-632f-431d-b15d-fad1d93d360c"
          }
        ]
      },
      "request": {
        "method": "PUT",
        "url": "DiagnosticReport?identifier=https://fhir.mytrust.nhs.uk/Id/NK|108512374"
      }
    },
    {
      "fullUrl": "urn:oid:11842d63-f473-4374-a00d-4caffc94c0f5",
      "resource": {
        "resourceType": "Observation",
        "text": {
          "status": "generated",
          "div": "<div xmlns=\"http://www.w3.org/1999/xhtml\"><p><b>Generated Narrative with Details</b></p><p><b>identifier</b>: 108512374-1</p><p><b>status</b>: final</p><p><b>code</b>: Heart Rate <span style=\"background: LightGoldenRodYellow\">(Details : {SNOMED CT code '364075005' = 'Heart rate', given as 'Heart Rate'})</span></p><p><b>subject</b>: <a href=\"#urnoidd980f514-8d01-4d6b-9b52-29436fda1231\">Generated Summary: unknown resource entry</a></p><p><b>effective</b>: 11 May 2018, 22:05:25</p><p><b>value</b>: 73.0 /min</p><h3>ReferenceRanges</h3><table class=\"grid\"><tr><td>-</td><td><b>Text</b></td></tr><tr><td>*</td><td>60-100</td></tr></table></div>"
        },
        "identifier": [
          {
            "system": "https://fhir.mytrust.nhs.uk/Id/NK",
            "value": "108512374-1"
          }
        ],
        "status": "final",
        "code": {
          "coding": [
            {
              "system": "http://snomed.info/sct",
              "code": "364075005",
              "display": "Heart Rate"
            }
          ]
        },
        "subject": {
          "reference": "urn:oid:d980f514-8d01-4d6b-9b52-29436fda1231"
        },
        "effectiveDateTime": "2018-05-11T22:05:25+01:00",
        "valueQuantity": {
          "value": 73.0,
          "unit": "/min"
        },
        "referenceRange": [
          {
            "text": "60-100"
          }
        ]
      },
      "request": {
        "method": "PUT",
        "url": "Observation?identifier=https://fhir.mytrust.nhs.uk/Id/NK|108512374-1"
      }
    },
    {
      "fullUrl": "urn:oid:926b9534-c247-45da-916c-b5bbbfb3da6d",
      "resource": {
        "resourceType": "Observation",
        "text": {
          "status": "generated",
          "div": "<div xmlns=\"http://www.w3.org/1999/xhtml\"><p><b>Generated Narrative with Details</b></p><p><b>identifier</b>: 108512374-2</p><p><b>status</b>: final</p><p><b>code</b>: Blood oxygen saturation <span style=\"background: LightGoldenRodYellow\">(Details : {SNOMED CT code '103228002' = 'Hemoglobin saturation with oxygen', given as 'Blood oxygen saturation'})</span></p><p><b>subject</b>: <a href=\"#urnoidd980f514-8d01-4d6b-9b52-29436fda1231\">Generated Summary: unknown resource entry</a></p><p><b>effective</b>: 11 May 2018, 22:05:25</p><p><b>value</b>: 98.0 %</p><h3>ReferenceRanges</h3><table class=\"grid\"><tr><td>-</td><td><b>Text</b></td></tr><tr><td>*</td><td>94-100</td></tr></table></div>"
        },
        "identifier": [
          {
            "system": "https://fhir.mytrust.nhs.uk/Id/NK",
            "value": "108512374-2"
          }
        ],
        "status": "final",
        "code": {
          "coding": [
            {
              "system": "http://snomed.info/sct",
              "code": "103228002",
              "display": "Blood oxygen saturation"
            }
          ]
        },
        "subject": {
          "reference": "urn:oid:d980f514-8d01-4d6b-9b52-29436fda1231"
        },
        "effectiveDateTime": "2018-05-11T22:05:25+01:00",
        "valueQuantity": {
          "value": 98.0,
          "unit": "%"
        },
        "referenceRange": [
          {
            "text": "94-100"
          }
        ]
      },
      "request": {
        "method": "PUT",
        "url": "Observation?identifier=https://fhir.mytrust.nhs.uk/Id/NK|108512374-2"
      }
    },
    {
      "fullUrl": "urn:oid:ac30fbfd-a166-4ebf-acd0-89fc6a8e5e46",
      "resource": {
        "resourceType": "Observation",
        "text": {
          "status": "generated",
          "div": "<div xmlns=\"http://www.w3.org/1999/xhtml\"><p><b>Generated Narrative with Details</b></p><p><b>identifier</b>: 108512374-3</p><p><b>status</b>: final</p><p><b>code</b>: Breathing room air <span style=\"background: LightGoldenRodYellow\">(Details : {SNOMED CT code '722742002' = 'Breathing room air (finding)', given as 'Breathing room air'})</span></p><p><b>subject</b>: <a href=\"#urnoidd980f514-8d01-4d6b-9b52-29436fda1231\">Generated Summary: unknown resource entry</a></p></div>"
        },
        "identifier": [
          {
            "system": "https://fhir.mytrust.nhs.uk/Id/NK",
            "value": "108512374-3"
          }
        ],
        "status": "final",
        "code": {
          "coding": [
            {
              "system": "http://snomed.info/sct",
              "code": "722742002",
              "display": "Breathing room air"
            }
          ]
        },
        "subject": {
          "reference": "urn:oid:d980f514-8d01-4d6b-9b52-29436fda1231"
        }
      },
      "request": {
        "method": "PUT",
        "url": "Observation?identifier=https://fhir.mytrust.nhs.uk/Id/NK|108512374-3"
      }
    },
    {
      "fullUrl": "urn:oid:87e13a1f-0173-415a-9f5d-66ac2746b382",
      "resource": {
        "resourceType": "Observation",
        "text": {
          "status": "generated",
          "div": "<div xmlns=\"http://www.w3.org/1999/xhtml\"><p><b>Generated Narrative with Details</b></p><p><b>identifier</b>: 108512374-4</p><p><b>status</b>: final</p><p><b>code</b>: ACVPU (Alert Confusion Voice Pain Unresponsive) scale score <span style=\"background: LightGoldenRodYellow\">(Details : {SNOMED CT code '1104441000000107' = '1104441000000107', given as 'ACVPU (Alert Confusion Voice Pain Unresponsive) scale score'})</span></p><p><b>subject</b>: <a href=\"#urnoidd980f514-8d01-4d6b-9b52-29436fda1231\">Generated Summary: unknown resource entry</a></p><p><b>value</b>: Mentally alert <span style=\"background: LightGoldenRodYellow\">(Details : {SNOMED CT code '248234008' = 'Mentally alert', given as 'Mentally alert'})</span></p></div>"
        },
        "identifier": [
          {
            "system": "https://fhir.mytrust.nhs.uk/Id/NK",
            "value": "108512374-4"
          }
        ],
        "status": "final",
        "code": {
          "coding": [
            {
              "system": "http://snomed.info/sct",
              "code": "1104441000000107",
              "display": "ACVPU (Alert Confusion Voice Pain Unresponsive) scale score"
            }
          ]
        },
        "subject": {
          "reference": "urn:oid:d980f514-8d01-4d6b-9b52-29436fda1231"
        },
        "valueCodeableConcept": {
          "coding": [
            {
              "system": "http://snomed.info/sct",
              "code": "248234008",
              "display": "Mentally alert"
            }
          ]
        }
      },
      "request": {
        "method": "PUT",
        "url": "Observation?identifier=https://fhir.mytrust.nhs.uk/Id/NK|108512374-4"
      }
    },
    {
      "fullUrl": "urn:oid:3d69129a-7c83-4fa4-adbb-d21a8d5d7d92",
      "resource": {
        "resourceType": "Observation",
        "text": {
          "status": "generated",
          "div": "<div xmlns=\"http://www.w3.org/1999/xhtml\"><p><b>Generated Narrative with Details</b></p><p><b>identifier</b>: 108512374-5</p><p><b>status</b>: final</p><p><b>code</b>: Respiratory rate <span style=\"background: LightGoldenRodYellow\">(Details : {SNOMED CT code '86290005' = 'Respiratory rate', given as 'Respiratory rate'})</span></p><p><b>subject</b>: <a href=\"#urnoidd980f514-8d01-4d6b-9b52-29436fda1231\">Generated Summary: unknown resource entry</a></p><p><b>value</b>: 20.0 /min</p></div>"
        },
        "identifier": [
          {
            "system": "https://fhir.mytrust.nhs.uk/Id/NK",
            "value": "108512374-5"
          }
        ],
        "status": "final",
        "code": {
          "coding": [
            {
              "system": "http://snomed.info/sct",
              "code": "86290005",
              "display": "Respiratory rate"
            }
          ]
        },
        "subject": {
          "reference": "urn:oid:d980f514-8d01-4d6b-9b52-29436fda1231"
        },
        "valueQuantity": {
          "value": 20.0,
          "unit": "/min"
        }
      },
      "request": {
        "method": "PUT",
        "url": "Observation?identifier=https://fhir.mytrust.nhs.uk/Id/NK|108512374-5"
      }
    },
    {
      "fullUrl": "urn:oid:6c87c7b5-632f-431d-b15d-fad1d93d360c",
      "resource": {
        "resourceType": "Observation",
        "text": {
          "status": "generated",
          "div": "<div xmlns=\"http://www.w3.org/1999/xhtml\"><p><b>Generated Narrative with Details</b></p><p><b>identifier</b>: 108512374-BP</p><p><b>status</b>: final</p><p><b>code</b>: Blood Pressure <span style=\"background: LightGoldenRodYellow\">(Details : {SNOMED CT code '75367002' = 'Blood pressure', given as 'Blood Pressure'})</span></p><p><b>subject</b>: <a href=\"#urnoidd980f514-8d01-4d6b-9b52-29436fda1231\">Generated Summary: unknown resource entry</a></p><blockquote><p><b>component</b></p><p><b>code</b>: Systolic arterial pressure <span style=\"background: LightGoldenRodYellow\">(Details : {SNOMED CT code '72313002' = 'Systolic arterial pressure', given as 'Systolic arterial pressure'})</span></p><p><b>value</b>: 132.0 mm[Hg]</p></blockquote><blockquote><p><b>component</b></p><p><b>code</b>: Diastolic arterial pressure <span style=\"background: LightGoldenRodYellow\">(Details : {SNOMED CT code '1091811000000102' = '1091811000000102', given as 'Diastolic arterial pressure'})</span></p><p><b>value</b>: 86.0 mm[Hg]</p></blockquote></div>"
        },
        "identifier": [
          {
            "system": "https://fhir.mytrust.nhs.uk/Id/NK",
            "value": "108512374-BP"
          }
        ],
        "status": "final",
        "code": {
          "coding": [
            {
              "system": "http://snomed.info/sct",
              "code": "75367002",
              "display": "Blood Pressure"
            }
          ]
        },
        "subject": {
          "reference": "urn:oid:d980f514-8d01-4d6b-9b52-29436fda1231"
        },
        "component": [
          {
            "code": {
              "coding": [
                {
                  "system": "http://snomed.info/sct",
                  "code": "72313002",
                  "display": "Systolic arterial pressure"
                }
              ]
            },
            "valueQuantity": {
              "value": 132.0,
              "unit": "mm[Hg]"
            }
          },
          {
            "code": {
              "coding": [
                {
                  "system": "http://snomed.info/sct",
                  "code": "1091811000000102",
                  "display": "Diastolic arterial pressure"
                }
              ]
            },
            "valueQuantity": {
              "value": 86.0,
              "unit": "mm[Hg]"
            }
          }
        ]
      },
      "request": {
        "method": "PUT",
        "url": "Observation?identifier=https://fhir.mytrust.nhs.uk/Id/NK|108512374-BP"
      }
    },
    {
      "fullUrl": "urn:oid:d980f514-8d01-4d6b-9b52-29436fda1231",
      "resource": {
        "resourceType": "Patient",
        "text": {
          "status": "generated",
          "div": "<div xmlns=\"http://www.w3.org/1999/xhtml\"><p><b>Generated Narrative with Details</b></p><p><b>identifier</b>: 3333333333</p><p><b>name</b>: FREDRICA SMITH </p><p><b>telecom</b>: ph: +441234567890(HOME)</p><p><b>gender</b>: female</p><p><b>birthDate</b>: 1965-12-13</p><p><b>address</b>: MALTON YO32 5TT (HOME)</p><p><b>generalPractitioner</b>: Dr Gregory Townley</p><p><b>managingOrganization</b>: MALTON GP PRACTICE</p></div>"
        },
        "identifier": [
          {
            "extension": [
              {
                "url": "https://fhir.nhs.uk/R4/StructureDefinition/Extension-UKCore-NHSNumberVerificationStatus",
                "valueCodeableConcept": {
                  "coding": [
                    {
                      "system": "https://fhir.hl7.org.ukR4/CodeSystem/UKCore-NHSNumberVerificationStatus",
                      "code": "01"
                    }
                  ]
                }
              }
            ],
            "system": "https://fhir.nhs.uk/Id/nhs-number",
            "value": "3333333333"
          }
        ],
        "name": [
          {
            "family": "SMITH",
            "given": [
              "FREDRICA"
            ],
            "prefix": [
              "MRS"
            ]
          }
        ],
        "telecom": [
          {
            "system": "phone",
            "value": "+441234567890",
            "use": "home"
          }
        ],
        "gender": "female",
        "birthDate": "1965-12-13",
        "address": [
          {
            "use": "home",
            "city": "MALTON",
            "district": "NORTH YORKSHIRE",
            "postalCode": "YO32 5TT"
          }
        ],
        "generalPractitioner": [
          {
            "identifier": {
              "system": "https://fhir.hl7.org.uk/Id/gmc-number",
              "value": "G5612908"
            },
            "display": "Dr Gregory Townley"
          }
        ],
        "managingOrganization": {
          "identifier": {
            "system": "https://fhir.nhs.uk/Id/ods-organization-code",
            "value": "Y06601"
          },
          "display": "MALTON GP PRACTICE"
        }
      },
      "request": {
        "method": "POST",
        "url": "Patient",
        "ifNoneExist": "Patient?identifier=https://fhir.nhs.uk/Id/nhs-number|3333333333"
      }
    }
  ]
}