<?xml version="1.0" encoding="UTF-8"?>

<Bundle xmlns="http://hl7.org/fhir">
  <id value="news2-report"/>
  <identifier>
    <system value="https://fhir.mytrust.nhs.uk/Id/RCB/PAS"/>
    <value value="14038913245354"/>
  </identifier>
  <type value="message"/>
  <entry>
    <fullUrl value="urn:oid:22ed2deb-effa-408c-9437-d3c4975ff448"/>
    <resource>
      <MessageHeader>
        <id value="22ed2deb-effa-408c-9437-d3c4975ff448"/>
        <text>
          <status value="generated"/><div xmlns="http://www.w3.org/1999/xhtml"><p><b>Generated Narrative</b></p></div>
        </text>
        <eventCoding>
          <system value="https://project-wildfyre.github.io/careconnect-messaging-r4/CodeSystem/message-events"/>
          <code value="unsolicited-observation"/>
          <display value="Unsolicited Observations"/>
        </eventCoding>
        <destination>
          <name value="ROUTE"/>
          <target>
            <display value="ROUTE"/>
          </target>
          <endpoint value="ROUTE"/>
        </destination>
        <sender>
          <identifier>
            <system value="https://fhir.nhs.uk/Id/ods-organization-code"/>
            <value value="RCB"/>
          </identifier>
          <display value="RCB"/>
        </sender>
        <source>
          <name value="PAS"/>
          <endpoint value="PAS"/>
        </source>
        <focus>
          <reference value="urn:oid:3915b469-57b7-470f-942f-e276c4458d63"/>
        </focus>
      </MessageHeader>
    </resource>
  </entry>
  <entry>
    <fullUrl value="urn:oid:3915b469-57b7-470f-942f-e276c4458d63"/>
    <resource>
      <DiagnosticReport>
        <id value="3915b469-57b7-470f-942f-e276c4458d63"/>
        <text>
          <status value="generated"/><div xmlns="http://www.w3.org/1999/xhtml"><p><b>Generated Narrative</b></p></div>
        </text>
        <identifier>
          <system value="https://fhir.mytrust.nhs.uk/Id/NK"/>
          <value value="108512374"/>
        </identifier>
        <status value="unknown"/>
        <code>
          <coding>
            <system value="http://snomed.info/sct"/>
            <code value="118227000"/>
            <display value="Vital Signs"/>
          </coding>
        </code>
        <subject>
          <reference value="urn:oid:d980f514-8d01-4d6b-9b52-29436fda1231"/>
        </subject>
        <effectivePeriod>
          <start value="2018-05-21T13:45:05+01:00"/>
        </effectivePeriod>
        <result>
          <reference value="urn:oid:11842d63-f473-4374-a00d-4caffc94c0f5"/>
        </result>
        <result>
          <reference value="urn:oid:926b9534-c247-45da-916c-b5bbbfb3da6d"/>
        </result>
        <result>
          <reference value="urn:oid:ac30fbfd-a166-4ebf-acd0-89fc6a8e5e46"/>
        </result>
        <result>
          <reference value="urn:oid:87e13a1f-0173-415a-9f5d-66ac2746b382"/>
        </result>
        <result>
          <reference value="urn:oid:3d69129a-7c83-4fa4-adbb-d21a8d5d7d92"/>
        </result>
        <result>
          <reference value="urn:oid:6c87c7b5-632f-431d-b15d-fad1d93d360c"/>
        </result>
      </DiagnosticReport>
    </resource>
  </entry>
  <entry>
    <fullUrl value="urn:oid:11842d63-f473-4374-a00d-4caffc94c0f5"/>
    <resource>
      <Observation>
        <id value="11842d63-f473-4374-a00d-4caffc94c0f5"/>
        <text>
          <status value="generated"/><div xmlns="http://www.w3.org/1999/xhtml"><p><b>Generated Narrative</b></p></div>
        </text>
        <identifier>
          <system value="https://fhir.mytrust.nhs.uk/Id/NK"/>
          <value value="108512374-1"/>
        </identifier>
        <status value="final"/>
        <code>
          <coding>
            <system value="http://snomed.info/sct"/>
            <code value="364075005"/>
            <display value="Heart Rate"/>
          </coding>
        </code>
        <subject>
          <reference value="urn:oid:d980f514-8d01-4d6b-9b52-29436fda1231"/>
        </subject>
        <effectiveDateTime value="2018-05-11T22:05:25+01:00"/>
        <valueQuantity>
          <value value="73.0"/>
          <unit value="/min"/>
        </valueQuantity>
        <referenceRange>
          <text value="60-100"/>
        </referenceRange>
      </Observation>
    </resource>
  </entry>
  <entry>
    <fullUrl value="urn:oid:926b9534-c247-45da-916c-b5bbbfb3da6d"/>
    <resource>
      <Observation>
        <id value="926b9534-c247-45da-916c-b5bbbfb3da6d"/>
        <text>
          <status value="generated"/><div xmlns="http://www.w3.org/1999/xhtml"><p><b>Generated Narrative</b></p></div>
        </text>
        <identifier>
          <system value="https://fhir.mytrust.nhs.uk/Id/NK"/>
          <value value="108512374-2"/>
        </identifier>
        <status value="final"/>
        <code>
          <coding>
            <system value="http://snomed.info/sct"/>
            <code value="103228002"/>
            <display value="Blood oxygen saturation"/>
          </coding>
        </code>
        <subject>
          <reference value="urn:oid:d980f514-8d01-4d6b-9b52-29436fda1231"/>
        </subject>
        <effectiveDateTime value="2018-05-11T22:05:25+01:00"/>
        <valueQuantity>
          <value value="98.0"/>
          <unit value="%"/>
        </valueQuantity>
        <referenceRange>
          <text value="94-100"/>
        </referenceRange>
      </Observation>
    </resource>
  </entry>
  <entry>
    <fullUrl value="urn:oid:ac30fbfd-a166-4ebf-acd0-89fc6a8e5e46"/>
    <resource>
      <Observation>
        <id value="ac30fbfd-a166-4ebf-acd0-89fc6a8e5e46"/>
        <text>
          <status value="generated"/><div xmlns="http://www.w3.org/1999/xhtml"><p><b>Generated Narrative</b></p></div>
        </text>
        <identifier>
          <system value="https://fhir.mytrust.nhs.uk/Id/NK"/>
          <value value="108512374-3"/>
        </identifier>
        <status value="final"/>
        <code>
          <coding>
            <system value="http://snomed.info/sct"/>
            <code value="722742002"/>
            <display value="Breathing room air"/>
          </coding>
        </code>
        <subject>
          <reference value="urn:oid:d980f514-8d01-4d6b-9b52-29436fda1231"/>
        </subject>
      </Observation>
    </resource>
  </entry>
  <entry>
    <fullUrl value="urn:oid:87e13a1f-0173-415a-9f5d-66ac2746b382"/>
    <resource>
      <Observation>
        <id value="87e13a1f-0173-415a-9f5d-66ac2746b382"/>
        <text>
          <status value="generated"/><div xmlns="http://www.w3.org/1999/xhtml"><p><b>Generated Narrative</b></p></div>
        </text>
        <identifier>
          <system value="https://fhir.mytrust.nhs.uk/Id/NK"/>
          <value value="108512374-4"/>
        </identifier>
        <status value="final"/>
        <code>
          <coding>
            <system value="http://snomed.info/sct"/>
            <code value="1104441000000107"/>
            <display value="ACVPU (Alert Confusion Voice Pain Unresponsive) scale score"/>
          </coding>
        </code>
        <subject>
          <reference value="urn:oid:d980f514-8d01-4d6b-9b52-29436fda1231"/>
        </subject>
        <valueCodeableConcept>
          <coding>
            <system value="http://snomed.info/sct"/>
            <code value="248234008"/>
            <display value="Mentally alert"/>
          </coding>
        </valueCodeableConcept>
      </Observation>
    </resource>
  </entry>
  <entry>
    <fullUrl value="urn:oid:3d69129a-7c83-4fa4-adbb-d21a8d5d7d92"/>
    <resource>
      <Observation>
        <id value="3d69129a-7c83-4fa4-adbb-d21a8d5d7d92"/>
        <text>
          <status value="generated"/><div xmlns="http://www.w3.org/1999/xhtml"><p><b>Generated Narrative</b></p></div>
        </text>
        <identifier>
          <system value="https://fhir.mytrust.nhs.uk/Id/NK"/>
          <value value="108512374-5"/>
        </identifier>
        <status value="final"/>
        <code>
          <coding>
            <system value="http://snomed.info/sct"/>
            <code value="86290005"/>
            <display value="Respiratory rate"/>
          </coding>
        </code>
        <subject>
          <reference value="urn:oid:d980f514-8d01-4d6b-9b52-29436fda1231"/>
        </subject>
        <valueQuantity>
          <value value="20.0"/>
          <unit value="/min"/>
        </valueQuantity>
      </Observation>
    </resource>
  </entry>
  <entry>
    <fullUrl value="urn:oid:6c87c7b5-632f-431d-b15d-fad1d93d360c"/>
    <resource>
      <Observation>
        <id value="6c87c7b5-632f-431d-b15d-fad1d93d360c"/>
        <text>
          <status value="generated"/><div xmlns="http://www.w3.org/1999/xhtml"><p><b>Generated Narrative</b></p></div>
        </text>
        <identifier>
          <system value="https://fhir.mytrust.nhs.uk/Id/NK"/>
          <value value="108512374-BP"/>
        </identifier>
        <status value="final"/>
        <code>
          <coding>
            <system value="http://snomed.info/sct"/>
            <code value="75367002"/>
            <display value="Blood Pressure"/>
          </coding>
        </code>
        <subject>
          <reference value="urn:oid:d980f514-8d01-4d6b-9b52-29436fda1231"/>
        </subject>
        <component>
          <code>
            <coding>
              <system value="http://snomed.info/sct"/>
              <code value="72313002"/>
              <display value="Systolic arterial pressure"/>
            </coding>
          </code>
          <valueQuantity>
            <value value="132.0"/>
            <unit value="mm[Hg]"/>
          </valueQuantity>
        </component>
        <component>
          <code>
            <coding>
              <system value="http://snomed.info/sct"/>
              <code value="1091811000000102"/>
              <display value="Diastolic arterial pressure"/>
            </coding>
          </code>
          <valueQuantity>
            <value value="86.0"/>
            <unit value="mm[Hg]"/>
          </valueQuantity>
        </component>
      </Observation>
    </resource>
  </entry>
  <entry>
    <fullUrl value="urn:oid:d980f514-8d01-4d6b-9b52-29436fda1231"/>
    <resource>
      <Patient>
        <id value="d980f514-8d01-4d6b-9b52-29436fda1231"/>
        <text>
          <status value="generated"/><div xmlns="http://www.w3.org/1999/xhtml"><p><b>Generated Narrative</b></p></div>
        </text>
        <identifier>
          <extension url="https://fhir.nhs.uk/R4/StructureDefinition/Extension-UKCore-NHSNumberVerificationStatus">
            <valueCodeableConcept>
              <coding>
                <system value="https://fhir.nhs.uk/R4/CodeSystem/UKCore-NHSNumberVerificationStatus"/>
                <code value="01"/>
              </coding>
            </valueCodeableConcept>
          </extension>
          <system value="https://fhir.nhs.uk/Id/nhs-number"/>
          <value value="3333333333"/>
        </identifier>
        <name>
          <family value="SMITH"/>
          <given value="FREDRICA"/>
          <prefix value="MRS"/>
        </name>
        <telecom>
          <system value="phone"/>
          <value value="+441234567890"/>
          <use value="home"/>
        </telecom>
        <gender value="female"/>
        <birthDate value="1965-12-13"/>
        <address>
          <use value="home"/>
          <city value="MALTON"/>
          <district value="NORTH YORKSHIRE"/>
          <postalCode value="YO32 5TT"/>
        </address>
        <generalPractitioner>
          <identifier>
            <system value="https://fhir.hl7.org.uk/Id/gmc-number"/>
            <value value="G5612908"/>
          </identifier>
          <display value="Dr Gregory Townley"/>
        </generalPractitioner>
        <managingOrganization>
          <identifier>
            <system value="https://fhir.nhs.uk/Id/ods-organization-code"/>
            <value value="Y06601"/>
          </identifier>
          <display value="MALTON GP PRACTICE"/>
        </managingOrganization>
      </Patient>
    </resource>
  </entry>
</Bundle>