<?xml version="1.0" encoding="UTF-8"?>

<Bundle xmlns="http://hl7.org/fhir">
  <id value="news2-report-transaction"/>
  <identifier>
    <system value="https://fhir.mytrust.nhs.uk/Id/RCB/PAS"/>
    <value value="14038913245354"/>
  </identifier>
  <type value="transaction"/>
  <entry>
    <fullUrl value="urn:oid:22ed2deb-effa-408c-9437-d3c4975ff448"/>
    <resource>
      <MessageHeader>
        <text>
          <status value="generated"/><div xmlns="http://www.w3.org/1999/xhtml"><p><b>Generated Narrative with Details</b></p><p><b>event</b>: ORU^R01 (Details: [not stated] code ORU^R01 = 'ORU^R01', stated as 'ORU^R01')</p><h3>Destinations</h3><table class="grid"><tr><td>-</td><td><b>Name</b></td><td><b>Target</b></td><td><b>Endpoint</b></td></tr><tr><td>*</td><td>ROUTE</td><td>ROUTE</td><td><a href="ROUTE">ROUTE</a></td></tr></table><p><b>sender</b>: RCB</p><h3>Sources</h3><table class="grid"><tr><td>-</td><td><b>Name</b></td><td><b>Endpoint</b></td></tr><tr><td>*</td><td>PAS</td><td><a href="PAS">PAS</a></td></tr></table><p><b>focus</b>: <a href="#urnoid3915b469-57b7-470f-942f-e276c4458d63">Generated Summary: unknown resource entry</a></p></div>
        </text>
        <eventCoding>
          <code value="ORU^R01"/>
          <display value="ORU^R01"/>
        </eventCoding>
        <destination>
          <name value="ROUTE"/>
          <target>
            <display value="ROUTE"/>
          </target>
          <endpoint value="ROUTE"/>
        </destination>
        <sender>
          <identifier>
            <system value="https://fhir.nhs.uk/Id/ods-organization-code"/>
            <value value="RCB"/>
          </identifier>
          <display value="RCB"/>
        </sender>
        <source>
          <name value="PAS"/>
          <endpoint value="PAS"/>
        </source>
        <focus>
          <reference value="urn:oid:3915b469-57b7-470f-942f-e276c4458d63"/>
        </focus>
      </MessageHeader>
    </resource>
    <request>
      <method value="POST"/>
      <url value="MessageHeader"/>
    </request>
  </entry>
  <entry>
    <fullUrl value="urn:oid:3915b469-57b7-470f-942f-e276c4458d63"/>
    <resource>
      <DiagnosticReport>
        <text>
          <status value="generated"/><div xmlns="http://www.w3.org/1999/xhtml"><p><b>Generated Narrative with Details</b></p><p><b>identifier</b>: 108512374</p><p><b>status</b>: unknown</p><p><b>code</b>: Vital Signs <span style="background: LightGoldenRodYellow">(Details : {SNOMED CT code '118227000' = 'Vital signs finding', given as 'Vital Signs'})</span></p><p><b>subject</b>: <a href="#urnoidd980f514-8d01-4d6b-9b52-29436fda1231">Generated Summary: unknown resource entry</a></p><p><b>effective</b>: 21 May 2018, 13:45:05 --&gt; (ongoing)</p><p><b>result</b>: </p><ul><li><a href="#urnoid11842d63-f473-4374-a00d-4caffc94c0f5">Generated Summary: unknown resource entry</a></li><li><a href="#urnoid926b9534-c247-45da-916c-b5bbbfb3da6d">Generated Summary: unknown resource entry</a></li><li><a href="#urnoidac30fbfd-a166-4ebf-acd0-89fc6a8e5e46">Generated Summary: unknown resource entry</a></li><li><a href="#urnoid87e13a1f-0173-415a-9f5d-66ac2746b382">Generated Summary: unknown resource entry</a></li><li><a href="#urnoid3d69129a-7c83-4fa4-adbb-d21a8d5d7d92">Generated Summary: unknown resource entry</a></li><li><a href="#urnoid6c87c7b5-632f-431d-b15d-fad1d93d360c">Generated Summary: unknown resource entry</a></li></ul></div>
        </text>
        <identifier>
          <system value="https://fhir.mytrust.nhs.uk/Id/NK"/>
          <value value="108512374"/>
        </identifier>
        <status value="unknown"/>
        <code>
          <coding>
            <system value="http://snomed.info/sct"/>
            <code value="118227000"/>
            <display value="Vital Signs"/>
          </coding>
        </code>
        <subject>
          <reference value="urn:oid:d980f514-8d01-4d6b-9b52-29436fda1231"/>
        </subject>
        <effectivePeriod>
          <start value="2018-05-21T13:45:05+01:00"/>
        </effectivePeriod>
        <result>
          <reference value="urn:oid:11842d63-f473-4374-a00d-4caffc94c0f5"/>
        </result>
        <result>
          <reference value="urn:oid:926b9534-c247-45da-916c-b5bbbfb3da6d"/>
        </result>
        <result>
          <reference value="urn:oid:ac30fbfd-a166-4ebf-acd0-89fc6a8e5e46"/>
        </result>
        <result>
          <reference value="urn:oid:87e13a1f-0173-415a-9f5d-66ac2746b382"/>
        </result>
        <result>
          <reference value="urn:oid:3d69129a-7c83-4fa4-adbb-d21a8d5d7d92"/>
        </result>
        <result>
          <reference value="urn:oid:6c87c7b5-632f-431d-b15d-fad1d93d360c"/>
        </result>
      </DiagnosticReport>
    </resource>
    <request>
      <method value="PUT"/>
      <url value="DiagnosticReport?identifier=https://fhir.mytrust.nhs.uk/Id/NK|108512374"/>
    </request>
  </entry>
  <entry>
    <fullUrl value="urn:oid:11842d63-f473-4374-a00d-4caffc94c0f5"/>
    <resource>
      <Observation>
        <text>
          <status value="generated"/><div xmlns="http://www.w3.org/1999/xhtml"><p><b>Generated Narrative with Details</b></p><p><b>identifier</b>: 108512374-1</p><p><b>status</b>: final</p><p><b>code</b>: Heart Rate <span style="background: LightGoldenRodYellow">(Details : {SNOMED CT code '364075005' = 'Heart rate', given as 'Heart Rate'})</span></p><p><b>subject</b>: <a href="#urnoidd980f514-8d01-4d6b-9b52-29436fda1231">Generated Summary: unknown resource entry</a></p><p><b>effective</b>: 11 May 2018, 22:05:25</p><p><b>value</b>: 73.0 /min</p><h3>ReferenceRanges</h3><table class="grid"><tr><td>-</td><td><b>Text</b></td></tr><tr><td>*</td><td>60-100</td></tr></table></div>
        </text>
        <identifier>
          <system value="https://fhir.mytrust.nhs.uk/Id/NK"/>
          <value value="108512374-1"/>
        </identifier>
        <status value="final"/>
        <code>
          <coding>
            <system value="http://snomed.info/sct"/>
            <code value="364075005"/>
            <display value="Heart Rate"/>
          </coding>
        </code>
        <subject>
          <reference value="urn:oid:d980f514-8d01-4d6b-9b52-29436fda1231"/>
        </subject>
        <effectiveDateTime value="2018-05-11T22:05:25+01:00"/>
        <valueQuantity>
          <value value="73.0"/>
          <unit value="/min"/>
        </valueQuantity>
        <referenceRange>
          <text value="60-100"/>
        </referenceRange>
      </Observation>
    </resource>
    <request>
      <method value="PUT"/>
      <url value="Observation?identifier=https://fhir.mytrust.nhs.uk/Id/NK|108512374-1"/>
    </request>
  </entry>
  <entry>
    <fullUrl value="urn:oid:926b9534-c247-45da-916c-b5bbbfb3da6d"/>
    <resource>
      <Observation>
        <text>
          <status value="generated"/><div xmlns="http://www.w3.org/1999/xhtml"><p><b>Generated Narrative with Details</b></p><p><b>identifier</b>: 108512374-2</p><p><b>status</b>: final</p><p><b>code</b>: Blood oxygen saturation <span style="background: LightGoldenRodYellow">(Details : {SNOMED CT code '103228002' = 'Hemoglobin saturation with oxygen', given as 'Blood oxygen saturation'})</span></p><p><b>subject</b>: <a href="#urnoidd980f514-8d01-4d6b-9b52-29436fda1231">Generated Summary: unknown resource entry</a></p><p><b>effective</b>: 11 May 2018, 22:05:25</p><p><b>value</b>: 98.0 %</p><h3>ReferenceRanges</h3><table class="grid"><tr><td>-</td><td><b>Text</b></td></tr><tr><td>*</td><td>94-100</td></tr></table></div>
        </text>
        <identifier>
          <system value="https://fhir.mytrust.nhs.uk/Id/NK"/>
          <value value="108512374-2"/>
        </identifier>
        <status value="final"/>
        <code>
          <coding>
            <system value="http://snomed.info/sct"/>
            <code value="103228002"/>
            <display value="Blood oxygen saturation"/>
          </coding>
        </code>
        <subject>
          <reference value="urn:oid:d980f514-8d01-4d6b-9b52-29436fda1231"/>
        </subject>
        <effectiveDateTime value="2018-05-11T22:05:25+01:00"/>
        <valueQuantity>
          <value value="98.0"/>
          <unit value="%"/>
        </valueQuantity>
        <referenceRange>
          <text value="94-100"/>
        </referenceRange>
      </Observation>
    </resource>
    <request>
      <method value="PUT"/>
      <url value="Observation?identifier=https://fhir.mytrust.nhs.uk/Id/NK|108512374-2"/>
    </request>
  </entry>
  <entry>
    <fullUrl value="urn:oid:ac30fbfd-a166-4ebf-acd0-89fc6a8e5e46"/>
    <resource>
      <Observation>
        <text>
          <status value="generated"/><div xmlns="http://www.w3.org/1999/xhtml"><p><b>Generated Narrative with Details</b></p><p><b>identifier</b>: 108512374-3</p><p><b>status</b>: final</p><p><b>code</b>: Breathing room air <span style="background: LightGoldenRodYellow">(Details : {SNOMED CT code '722742002' = 'Breathing room air (finding)', given as 'Breathing room air'})</span></p><p><b>subject</b>: <a href="#urnoidd980f514-8d01-4d6b-9b52-29436fda1231">Generated Summary: unknown resource entry</a></p></div>
        </text>
        <identifier>
          <system value="https://fhir.mytrust.nhs.uk/Id/NK"/>
          <value value="108512374-3"/>
        </identifier>
        <status value="final"/>
        <code>
          <coding>
            <system value="http://snomed.info/sct"/>
            <code value="722742002"/>
            <display value="Breathing room air"/>
          </coding>
        </code>
        <subject>
          <reference value="urn:oid:d980f514-8d01-4d6b-9b52-29436fda1231"/>
        </subject>
      </Observation>
    </resource>
    <request>
      <method value="PUT"/>
      <url value="Observation?identifier=https://fhir.mytrust.nhs.uk/Id/NK|108512374-3"/>
    </request>
  </entry>
  <entry>
    <fullUrl value="urn:oid:87e13a1f-0173-415a-9f5d-66ac2746b382"/>
    <resource>
      <Observation>
        <text>
          <status value="generated"/><div xmlns="http://www.w3.org/1999/xhtml"><p><b>Generated Narrative with Details</b></p><p><b>identifier</b>: 108512374-4</p><p><b>status</b>: final</p><p><b>code</b>: ACVPU (Alert Confusion Voice Pain Unresponsive) scale score <span style="background: LightGoldenRodYellow">(Details : {SNOMED CT code '1104441000000107' = '1104441000000107', given as 'ACVPU (Alert Confusion Voice Pain Unresponsive) scale score'})</span></p><p><b>subject</b>: <a href="#urnoidd980f514-8d01-4d6b-9b52-29436fda1231">Generated Summary: unknown resource entry</a></p><p><b>value</b>: Mentally alert <span style="background: LightGoldenRodYellow">(Details : {SNOMED CT code '248234008' = 'Mentally alert', given as 'Mentally alert'})</span></p></div>
        </text>
        <identifier>
          <system value="https://fhir.mytrust.nhs.uk/Id/NK"/>
          <value value="108512374-4"/>
        </identifier>
        <status value="final"/>
        <code>
          <coding>
            <system value="http://snomed.info/sct"/>
            <code value="1104441000000107"/>
            <display value="ACVPU (Alert Confusion Voice Pain Unresponsive) scale score"/>
          </coding>
        </code>
        <subject>
          <reference value="urn:oid:d980f514-8d01-4d6b-9b52-29436fda1231"/>
        </subject>
        <valueCodeableConcept>
          <coding>
            <system value="http://snomed.info/sct"/>
            <code value="248234008"/>
            <display value="Mentally alert"/>
          </coding>
        </valueCodeableConcept>
      </Observation>
    </resource>
    <request>
      <method value="PUT"/>
      <url value="Observation?identifier=https://fhir.mytrust.nhs.uk/Id/NK|108512374-4"/>
    </request>
  </entry>
  <entry>
    <fullUrl value="urn:oid:3d69129a-7c83-4fa4-adbb-d21a8d5d7d92"/>
    <resource>
      <Observation>
        <text>
          <status value="generated"/><div xmlns="http://www.w3.org/1999/xhtml"><p><b>Generated Narrative with Details</b></p><p><b>identifier</b>: 108512374-5</p><p><b>status</b>: final</p><p><b>code</b>: Respiratory rate <span style="background: LightGoldenRodYellow">(Details : {SNOMED CT code '86290005' = 'Respiratory rate', given as 'Respiratory rate'})</span></p><p><b>subject</b>: <a href="#urnoidd980f514-8d01-4d6b-9b52-29436fda1231">Generated Summary: unknown resource entry</a></p><p><b>value</b>: 20.0 /min</p></div>
        </text>
        <identifier>
          <system value="https://fhir.mytrust.nhs.uk/Id/NK"/>
          <value value="108512374-5"/>
        </identifier>
        <status value="final"/>
        <code>
          <coding>
            <system value="http://snomed.info/sct"/>
            <code value="86290005"/>
            <display value="Respiratory rate"/>
          </coding>
        </code>
        <subject>
          <reference value="urn:oid:d980f514-8d01-4d6b-9b52-29436fda1231"/>
        </subject>
        <valueQuantity>
          <value value="20.0"/>
          <unit value="/min"/>
        </valueQuantity>
      </Observation>
    </resource>
    <request>
      <method value="PUT"/>
      <url value="Observation?identifier=https://fhir.mytrust.nhs.uk/Id/NK|108512374-5"/>
    </request>
  </entry>
  <entry>
    <fullUrl value="urn:oid:6c87c7b5-632f-431d-b15d-fad1d93d360c"/>
    <resource>
      <Observation>
        <text>
          <status value="generated"/><div xmlns="http://www.w3.org/1999/xhtml"><p><b>Generated Narrative with Details</b></p><p><b>identifier</b>: 108512374-BP</p><p><b>status</b>: final</p><p><b>code</b>: Blood Pressure <span style="background: LightGoldenRodYellow">(Details : {SNOMED CT code '75367002' = 'Blood pressure', given as 'Blood Pressure'})</span></p><p><b>subject</b>: <a href="#urnoidd980f514-8d01-4d6b-9b52-29436fda1231">Generated Summary: unknown resource entry</a></p><blockquote><p><b>component</b></p><p><b>code</b>: Systolic arterial pressure <span style="background: LightGoldenRodYellow">(Details : {SNOMED CT code '72313002' = 'Systolic arterial pressure', given as 'Systolic arterial pressure'})</span></p><p><b>value</b>: 132.0 mm[Hg]</p></blockquote><blockquote><p><b>component</b></p><p><b>code</b>: Diastolic arterial pressure <span style="background: LightGoldenRodYellow">(Details : {SNOMED CT code '1091811000000102' = '1091811000000102', given as 'Diastolic arterial pressure'})</span></p><p><b>value</b>: 86.0 mm[Hg]</p></blockquote></div>
        </text>
        <identifier>
          <system value="https://fhir.mytrust.nhs.uk/Id/NK"/>
          <value value="108512374-BP"/>
        </identifier>
        <status value="final"/>
        <code>
          <coding>
            <system value="http://snomed.info/sct"/>
            <code value="75367002"/>
            <display value="Blood Pressure"/>
          </coding>
        </code>
        <subject>
          <reference value="urn:oid:d980f514-8d01-4d6b-9b52-29436fda1231"/>
        </subject>
        <component>
          <code>
            <coding>
              <system value="http://snomed.info/sct"/>
              <code value="72313002"/>
              <display value="Systolic arterial pressure"/>
            </coding>
          </code>
          <valueQuantity>
            <value value="132.0"/>
            <unit value="mm[Hg]"/>
          </valueQuantity>
        </component>
        <component>
          <code>
            <coding>
              <system value="http://snomed.info/sct"/>
              <code value="1091811000000102"/>
              <display value="Diastolic arterial pressure"/>
            </coding>
          </code>
          <valueQuantity>
            <value value="86.0"/>
            <unit value="mm[Hg]"/>
          </valueQuantity>
        </component>
      </Observation>
    </resource>
    <request>
      <method value="PUT"/>
      <url value="Observation?identifier=https://fhir.mytrust.nhs.uk/Id/NK|108512374-BP"/>
    </request>
  </entry>
  <entry>
    <fullUrl value="urn:oid:d980f514-8d01-4d6b-9b52-29436fda1231"/>
    <resource>
      <Patient>
        <text>
          <status value="generated"/><div xmlns="http://www.w3.org/1999/xhtml"><p><b>Generated Narrative with Details</b></p><p><b>identifier</b>: 3333333333</p><p><b>name</b>: FREDRICA SMITH </p><p><b>telecom</b>: ph: +441234567890(HOME)</p><p><b>gender</b>: female</p><p><b>birthDate</b>: 1965-12-13</p><p><b>address</b>: MALTON YO32 5TT (HOME)</p><p><b>generalPractitioner</b>: Dr Gregory Townley</p><p><b>managingOrganization</b>: MALTON GP PRACTICE</p></div>
        </text>
        <identifier>
          <extension url="https://fhir.hl7.org.uk/STU3/StructureDefinition/Extension-CareConnect-NHSNumberVerificationStatus-1">
            <valueCodeableConcept>
              <coding>
                <system value="https://fhir.hl7.org.uk/STU3/CodeSystem/CareConnect-NHSNumberVerificationStatus-1"/>
                <code value="01"/>
              </coding>
            </valueCodeableConcept>
          </extension>
          <system value="https://fhir.nhs.uk/Id/nhs-number"/>
          <value value="3333333333"/>
        </identifier>
        <name>
          <family value="SMITH"/>
          <given value="FREDRICA"/>
          <prefix value="MRS"/>
        </name>
        <telecom>
          <system value="phone"/>
          <value value="+441234567890"/>
          <use value="home"/>
        </telecom>
        <gender value="female"/>
        <birthDate value="1965-12-13"/>
        <address>
          <use value="home"/>
          <city value="MALTON"/>
          <district value="NORTH YORKSHIRE"/>
          <postalCode value="YO32 5TT"/>
        </address>
        <generalPractitioner>
          <identifier>
            <system value="https://fhir.hl7.org.uk/Id/gmc-number"/>
            <value value="G5612908"/>
          </identifier>
          <display value="Dr Gregory Townley"/>
        </generalPractitioner>
        <managingOrganization>
          <identifier>
            <system value="https://fhir.nhs.uk/Id/ods-organization-code"/>
            <value value="Y06601"/>
          </identifier>
          <display value="MALTON GP PRACTICE"/>
        </managingOrganization>
      </Patient>
    </resource>
    <request>
      <method value="POST"/>
      <url value="Patient"/>
      <ifNoneExist value="Patient?identifier=https://fhir.nhs.uk/Id/nhs-number|3333333333"/>
    </request>
  </entry>
</Bundle>