{
  "resourceType": "Bundle",
  "id": "notification-discharge-transaction",
  "identifier": {
    "system": "https://fhir.mytrust.nhs.uk/Id/RCB/MATSYSTEM",
    "value": "13403891320453338089"
  },
  "type": "transaction",
  "entry": [
    {
      "fullUrl": "urn:oid:1fe9a302-1575-44e0-b8a8-9de72b5576fe",
      "resource": {
        "resourceType": "MessageHeader",
        "text": {
          "status": "generated",
          "div": "<div xmlns=\"http://www.w3.org/1999/xhtml\"><p><b>Generated Narrative with Details</b></p><h3>Destinations</h3><table class=\"grid\"><tr><td>-</td><td><b>Name</b></td><td><b>Target</b></td><td><b>Endpoint</b></td></tr><tr><td>*</td><td>PAS</td><td>PAS</td><td><a href=\"PAS\">PAS</a></td></tr></table><p><b>sender</b>: RCB</p><h3>Sources</h3><table class=\"grid\"><tr><td>-</td><td><b>Name</b></td><td><b>Endpoint</b></td></tr><tr><td>*</td><td>MATSYSTEM</td><td><a href=\"MATSYSTEM\">MATSYSTEM</a></td></tr></table><p><b>focus</b>: <a href=\"urn:oid:24ffdbb6-db4a-4be2-94f6-8f4831d48f80\">urn:oid:24ffdbb6-db4a-4be2-94f6-8f4831d48f80</a></p></div>"
        },
        "destination": [
          {
            "name": "PAS",
            "target": {
              "display": "PAS"
            },
            "endpoint": "PAS"
          }
        ],
        "sender": {
          "identifier": {
            "system": "https://fhir.nhs.uk/Id/ods-organization-code",
            "value": "RCB"
          },
          "display": "RCB"
        },
        "source": {
          "name": "MATSYSTEM",
          "endpoint": "MATSYSTEM"
        },
        "focus": [
          {
            "reference": "urn:oid:24ffdbb6-db4a-4be2-94f6-8f4831d48f80"
          }
        ]
      },
      "request": {
        "method": "POST",
        "url": "MessageHeader"
      }
    },
    {
      "fullUrl": "urn:oid:24ffdbb6-db4a-4be2-94f6-8f4831d48f80",
      "resource": {
        "resourceType": "Encounter",
        "text": {
          "status": "generated",
          "div": "<div xmlns=\"http://www.w3.org/1999/xhtml\"><p><b>Generated Narrative with Details</b></p><p><b>identifier</b>: 11554</p><p><b>status</b>: finished</p><p><b>class</b>: short stay (Details: http://hl7.org/fhir/v3/ActCode code SS = 'SS', stated as 'short stay')</p><p><b>type</b>: 82 <span style=\"background: LightGoldenRodYellow\">(Details : {https://fhir.nhs.uk/R4/CodeSystem/UKCore-AdmissionMethod code '82' = '82)</span>, 500 <span style=\"background: LightGoldenRodYellow\">(Details : {https://fhir.nhs.uk/STU3/CodeSystem/DCH-Specialty-1 code '500' = '500)</span></p><p><b>subject</b>: <a href=\"urn:oid:45fe8f76-8f1f-4b26-bac8-5c5127a6ff66\">urn:oid:45fe8f76-8f1f-4b26-bac8-5c5127a6ff66</a></p><blockquote><p><b>participant</b></p><p><b>type</b>: attender <span style=\"background: LightGoldenRodYellow\">(Details : {http://hl7.org/fhir/v3/ParticipationType code 'ATND' = 'ATND', given as 'attender'})</span></p><p><b>individual</b>: Dr Samuel Darwin</p></blockquote><blockquote><p><b>participant</b></p><p><b>type</b>: admitter <span style=\"background: LightGoldenRodYellow\">(Details : {http://hl7.org/fhir/v3/ParticipationType code 'ADM' = 'ADM', given as 'admitter'})</span></p><p><b>individual</b>: Dr Samuel Darwin</p></blockquote><blockquote><p><b>participant</b></p><p><b>type</b>: consultant <span style=\"background: LightGoldenRodYellow\">(Details : {http://hl7.org/fhir/v3/ParticipationType code 'CON' = 'CON', given as 'consultant'})</span></p><p><b>individual</b>: Dr Samuel Darwin</p></blockquote><p><b>period</b>: 30 Mar 2010, 11:00:00 --&gt; 31 Mar 2010, 17:15:00</p><h3>Hospitalizations</h3><table class=\"grid\"><tr><td>-</td><td><b>AdmitSource</b></td><td><b>DischargeDisposition</b></td></tr><tr><td>*</td><td>79 <span style=\"background: LightGoldenRodYellow\">(Details : {https://fhir.nhs.uk/R4/CodeSystem/UKCore-SourceOfAdmission code '79' = '79)</span></td><td>19 <span style=\"background: LightGoldenRodYellow\">(Details : {https://fhir.nhs.uk/R4/CodeSystem/UKCore-DischargeMethod code '19' = '19)</span></td></tr></table><h3>Locations</h3><table class=\"grid\"><tr><td>-</td><td><b>Location</b></td><td><b>Status</b></td></tr><tr><td>*</td><td><a href=\"urn:oid:a17ba089-4543-451f-b3b3-100a5fa48387\">MATWRD</a></td><td>active</td></tr></table></div>"
        },
        "identifier": [
          {
            "system": "http://terminology.hl7.org/CodeSystem/v2-0203",
            "value": "11554"
          }
        ],
        "status": "finished",
        "class": {
          "system": "http://hl7.org/fhir/v3/ActCode",
          "code": "SS",
          "display": "short stay"
        },
        "type": [
          {
            "coding": [
              {
                "system": "https://fhir.nhs.uk/R4/CodeSystem/UKCore-AdmissionMethod",
                "code": "82"
              }
            ]
          },
          {
            "coding": [
              {
                "system": "https://fhir.nhs.uk/STU3/CodeSystem/DCH-Specialty-1",
                "code": "500"
              }
            ]
          }
        ],
        "subject": {
          "reference": "urn:oid:45fe8f76-8f1f-4b26-bac8-5c5127a6ff66"
        },
        "participant": [
          {
            "type": [
              {
                "coding": [
                  {
                    "system": "http://hl7.org/fhir/v3/ParticipationType",
                    "code": "ATND",
                    "display": "attender"
                  }
                ]
              }
            ],
            "individual": {
              "identifier": {
                "system": "https://fhir.hl7.org.uk/Id/gmc-number",
                "value": "C3456789"
              },
              "display": "Dr Samuel Darwin"
            }
          },
          {
            "type": [
              {
                "coding": [
                  {
                    "system": "http://hl7.org/fhir/v3/ParticipationType",
                    "code": "ADM",
                    "display": "admitter"
                  }
                ]
              }
            ],
            "individual": {
              "identifier": {
                "system": "https://fhir.hl7.org.uk/Id/gmc-number",
                "value": "C3456789"
              },
              "display": "Dr Samuel Darwin"
            }
          },
          {
            "type": [
              {
                "coding": [
                  {
                    "system": "http://hl7.org/fhir/v3/ParticipationType",
                    "code": "CON",
                    "display": "consultant"
                  }
                ]
              }
            ],
            "individual": {
              "identifier": {
                "system": "https://fhir.hl7.org.uk/Id/gmc-number",
                "value": "C3456789"
              },
              "display": "Dr Samuel Darwin"
            }
          }
        ],
        "period": {
          "start": "2010-03-30T11:00:00+01:00",
          "end": "2010-03-31T17:15:00+01:00"
        },
        "hospitalization": {
          "admitSource": {
            "coding": [
              {
                "system": "https://fhir.nhs.uk/R4/CodeSystem/UKCore-SourceOfAdmission",
                "code": "79"
              }
            ]
          },
          "dischargeDisposition": {
            "coding": [
              {
                "system": "https://fhir.nhs.uk/R4/CodeSystem/UKCore-DischargeMethod",
                "code": "19"
              }
            ]
          }
        },
        "location": [
          {
            "location": {
              "reference": "urn:oid:a17ba089-4543-451f-b3b3-100a5fa48387",
              "display": "MATWRD"
            },
            "status": "active"
          }
        ]
      },
      "request": {
        "method": "POST",
        "url": "Encounter",
        "ifNoneExist": "Encounter?identifier=http://terminology.hl7.org/CodeSystem/v2-0203|11554"
      }
    },
    {
      "fullUrl": "urn:oid:45fe8f76-8f1f-4b26-bac8-5c5127a6ff66",
      "resource": {
        "resourceType": "Patient",
        "text": {
          "status": "generated",
          "div": "<div xmlns=\"http://www.w3.org/1999/xhtml\"><p><b>Generated Narrative with Details</b></p><p><b>identifier</b>: 3333333333</p><p><b>name</b>: FREDRICA SMITH </p><p><b>telecom</b>: ph: +441234567890(HOME)</p><p><b>gender</b>: female</p><p><b>birthDate</b>: 1965-12-13</p><p><b>address</b>: MALTON YO32 5TT (HOME)</p><p><b>generalPractitioner</b>: Dr Gregory Townley</p><p><b>managingOrganization</b>: MALTON GP PRACTICE</p></div>"
        },
        "identifier": [
          {
            "extension": [
              {
                "url": "https://fhir.hl7.org.uk/STU3/StructureDefinition/Extension-CareConnect-NHSNumberVerificationStatus-1",
                "valueCodeableConcept": {
                  "coding": [
                    {
                      "system": "https://fhir.hl7.org.uk/STU3/CodeSystem/CareConnect-NHSNumberVerificationStatus-1",
                      "code": "01"
                    }
                  ]
                }
              }
            ],
            "system": "https://fhir.nhs.uk/Id/nhs-number",
            "value": "3333333333"
          }
        ],
        "name": [
          {
            "family": "SMITH",
            "given": [
              "FREDRICA"
            ],
            "prefix": [
              "MRS"
            ]
          }
        ],
        "telecom": [
          {
            "system": "phone",
            "value": "+441234567890",
            "use": "home"
          }
        ],
        "gender": "female",
        "birthDate": "1965-12-13",
        "address": [
          {
            "use": "home",
            "city": "MALTON",
            "district": "NORTH YORKSHIRE",
            "postalCode": "YO32 5TT"
          }
        ],
        "generalPractitioner": [
          {
            "identifier": {
              "system": "https://fhir.hl7.org.uk/Id/gmc-number",
              "value": "G5612908"
            },
            "display": "Dr Gregory Townley"
          }
        ],
        "managingOrganization": {
          "identifier": {
            "system": "https://fhir.nhs.uk/Id/ods-organization-code",
            "value": "Y06601"
          },
          "display": "MALTON GP PRACTICE"
        }
      },
      "request": {
        "method": "POST",
        "url": "Patient",
        "ifNoneExist": "Patient?identifier=https://fhir.nhs.uk/Id/nhs-number|3333333333"
      }
    },
    {
      "fullUrl": "urn:oid:a17ba089-4543-451f-b3b3-100a5fa48387",
      "resource": {
        "resourceType": "Location",
        "text": {
          "status": "generated",
          "div": "<div xmlns=\"http://www.w3.org/1999/xhtml\"><p><b>Generated Narrative with Details</b></p><p><b>identifier</b>: MATWRD</p><p><b>name</b>: MATWRD</p><p><b>managingOrganization</b>: </p><p><b>partOf</b>: </p></div>"
        },
        "identifier": [
          {
            "system": "https://fhir.myepr.co.uk/Id/Ward",
            "value": "MATWRD"
          }
        ],
        "name": "MATWRD",
        "managingOrganization": {
          "identifier": {
            "system": "https://fhir.nhs.uk/Id/ods-organization-code",
            "value": "RCB"
          }
        },
        "partOf": {
          "identifier": {
            "system": "https://fhir.nhs.uk/Id/ods-site-code",
            "value": "RCB55"
          }
        }
      },
      "request": {
        "method": "POST",
        "url": "Location",
        "ifNoneExist": "Location?identifier=https://fhir.myepr.co.uk/Id/Ward|MATWRD"
      }
    }
  ]
}