{
  "resourceType": "Bundle",
  "id": "covid19-service-request",
  "identifier": {
    "value": "14038913245354"
  },
  "type": "message",
  "entry": [
    {
      "fullUrl": "urn:oid:3d4a07cc-ff85-45c2-8f60-202d5506db02",
      "resource": {
        "resourceType": "MessageHeader",
        "id": "3d4a07cc-ff85-45c2-8f60-202d5506db02",
        "text": {
          "status": "generated",
          "div": "<div xmlns=\"http://www.w3.org/1999/xhtml\"><p><b>Generated Narrative with Details</b></p><p><b>id</b>: 3d4a07cc-ff85-45c2-8f60-202d5506db02</p><p><b>event</b>: patient-referral (Details: [not stated] code patient-referral = 'patient-referral', stated as 'patient-referral')</p><h3>Destinations</h3><table class=\"grid\"><tr><td>-</td><td><b>Name</b></td><td><b>Endpoint</b></td><td><b>Receiver</b></td></tr><tr><td>*</td><td>ROUTE</td><td><a href=\"http://fhirserver-env-1.eba-aepmzc4d.eu-west-2.elasticbeanstalk.com:8186/R4\">http://fhirserver-env-1.eba-aepmzc4d.eu-west-2.elasticbeanstalk.com:8186/R4</a></td><td>DHU HEALTH CARE C.I.C</td></tr></table><p><b>sender</b>: YORKSHIRE AMBULANCE SERVICE NHS TRUST</p><h3>Sources</h3><table class=\"grid\"><tr><td>-</td><td><b>Name</b></td><td><b>Endpoint</b></td></tr><tr><td>*</td><td>YORKSHIRE AMBULANCE SERVICE NHS TRUST</td><td><a href=\"http://fhirserver-env-1.eba-aepmzc4d.eu-west-2.yas.com/R4\">http://fhirserver-env-1.eba-aepmzc4d.eu-west-2.yas.com/R4</a></td></tr></table><p><b>focus</b>: <a href=\"#backboneelement_6eb72362-cc88-4c54-bd05-a49885d370be\">Generated Summary: unknown resource entry</a></p></div>"
        },
        "eventCoding": {
          "code": "patient-referral",
          "display": "patient-referral"
        },
        "destination": [
          {
            "name": "ROUTE",
            "endpoint": "http://fhirserver-env-1.eba-aepmzc4d.eu-west-2.elasticbeanstalk.com:8186/R4",
            "receiver": {
              "identifier": {
                "system": "https://fhir.nhs.uk/Id/ods-site-code",
                "value": "NNJ"
              },
              "display": "DHU HEALTH CARE C.I.C"
            }
          }
        ],
        "sender": {
          "identifier": {
            "system": "https://fhir.nhs.uk/Id/ods-organization-code",
            "value": "RX8"
          },
          "display": "YORKSHIRE AMBULANCE SERVICE NHS TRUST"
        },
        "source": {
          "name": "YORKSHIRE AMBULANCE SERVICE NHS TRUST",
          "endpoint": "http://fhirserver-env-1.eba-aepmzc4d.eu-west-2.yas.com/R4"
        },
        "focus": [
          {
            "reference": "urn:oid:6eb72362-cc88-4c54-bd05-a49885d370be"
          }
        ]
      }
    },
    {
      "fullUrl": "urn:oid:6eb72362-cc88-4c54-bd05-a49885d370be",
      "resource": {
        "resourceType": "ServiceRequest",
        "id": "6eb72362-cc88-4c54-bd05-a49885d370be",
        "meta": {
          "lastUpdated": "2019-06-26T16:08:17.275+00:00"
        },
        "text": {
          "status": "generated",
          "div": "<div xmlns=\"http://www.w3.org/1999/xhtml\"><p><b>Generated Narrative with Details</b></p><p><b>id</b>: 6eb72362-cc88-4c54-bd05-a49885d370be</p><p><b>meta</b>: </p><p><b>identifier</b>: R3</p><p><b>status</b>: completed</p><p><b>intent</b>: order</p><p><b>subject</b>: <a href=\"#backboneelement_a4776fe1-6bb4-4e3c-af5b-d48e1ee873b4\">MRS FREDICA SMITH. Generated Summary: unknown resource entry</a></p><p><b>encounter</b>: <a href=\"#backboneelement_38eeb5d7-e689-4ec5-81d2-f51f3011c72c\">Generated Summary: unknown resource entry</a></p><p><b>authoredOn</b>: 8 Nov 2018, 12:30:00</p><p><b>requester</b>: </p><p><b>reasonCode</b>: Exposure to severe acute respiratory syndrome coronavirus 2 (event) <span style=\"background: LightGoldenRodYellow\">(Details : {SNOMED CT code '840546002' = 'Exposure to 2019 novel coronavirus', given as 'Exposure to severe acute respiratory syndrome coronavirus 2 (event)'})</span></p><p><b>supportingInfo</b>: <a href=\"#backboneelement_19e6fd1e-cdb6-4b35-8d76-be67d2b9812d\">Generated Summary: unknown resource entry</a></p></div>"
        },
        "identifier": [
          {
            "system": "https://fhir.interopen.org/ReferralRequest/Identifier",
            "value": "R3"
          }
        ],
        "status": "completed",
        "intent": "order",
        "subject": {
          "reference": "urn:oid:a4776fe1-6bb4-4e3c-af5b-d48e1ee873b4",
          "display": "MRS FREDICA SMITH"
        },
        "encounter": {
          "reference": "urn:oid:38eeb5d7-e689-4ec5-81d2-f51f3011c72c"
        },
        "authoredOn": "2018-11-08T12:30:00+00:00",
        "reasonCode": [
          {
            "coding": [
              {
                "system": "http://snomed.info/sct",
                "code": "840546002",
                "display": "Exposure to severe acute respiratory syndrome coronavirus 2 (event)"
              }
            ]
          }
        ],
        "supportingInfo": [
          {
            "reference": "urn:oid:19e6fd1e-cdb6-4b35-8d76-be67d2b9812d"
          }
        ]
      }
    },
    {
      "fullUrl": "urn:oid:38eeb5d7-e689-4ec5-81d2-f51f3011c72c",
      "resource": {
        "resourceType": "Encounter",
        "id": "38eeb5d7-e689-4ec5-81d2-f51f3011c72c",
        "text": {
          "status": "generated",
          "div": "<div xmlns=\"http://www.w3.org/1999/xhtml\"><p><b>Generated Narrative with Details</b></p><p><b>id</b>: 38eeb5d7-e689-4ec5-81d2-f51f3011c72c</p><p><b>identifier</b>: 2141</p><p><b>status</b>: in-progress</p><p><b>class</b>: ambulatory (Details: http://terminology.hl7.org/CodeSystem/v3-ActCode code AMB = 'ambulatory', stated as 'ambulatory')</p><p><b>type</b>: Planned <span style=\"background: LightGoldenRodYellow\">(Details : {https://fhir.nhs.uk/R4/CodeSystem/UKCore-AdmissionMethod code '13' = 'Planned)</span>, 300 <span style=\"background: LightGoldenRodYellow\">(Details : {https://fhir.nhs.uk/STU3/CodeSystem/DCH-Specialty-1 code '300' = '300)</span></p><p><b>subject</b>: <a href=\"#backboneelement_a4776fe1-6bb4-4e3c-af5b-d48e1ee873b4\">Generated Summary: unknown resource entry</a></p><blockquote><p><b>participant</b></p><p><b>type</b>: attender <span style=\"background: LightGoldenRodYellow\">(Details : {http://terminology.hl7.org/CodeSystem/v3-ParticipationType code 'ATND' = 'attender', given as 'attender'})</span></p><p><b>individual</b>: Dr Samuel Darwin</p></blockquote><blockquote><p><b>participant</b></p><p><b>type</b>: admitter <span style=\"background: LightGoldenRodYellow\">(Details : {http://terminology.hl7.org/CodeSystem/v3-ParticipationType code 'ADM' = 'admitter', given as 'admitter'})</span></p><p><b>individual</b>: Dr Samuel Darwin</p></blockquote><blockquote><p><b>participant</b></p><p><b>type</b>: consultant <span style=\"background: LightGoldenRodYellow\">(Details : {http://terminology.hl7.org/CodeSystem/v3-ParticipationType code 'CON' = 'consultant', given as 'consultant'})</span></p><p><b>individual</b>: Dr Samuel Darwin</p></blockquote><blockquote><p><b>participant</b></p><p><b>type</b>: referrer <span style=\"background: LightGoldenRodYellow\">(Details : {http://terminology.hl7.org/CodeSystem/v3-ParticipationType code 'REF' = 'referrer', given as 'referrer'})</span></p><p><b>individual</b>: Dr Gregory Townley</p></blockquote><p><b>period</b>: 1 Nov 2010, 16:00:00 --&gt; (ongoing)</p><h3>Hospitalizations</h3><table class=\"grid\"><tr><td>-</td><td><b>AdmitSource</b></td></tr><tr><td>*</td><td>Usual place of residence <span style=\"background: LightGoldenRodYellow\">(Details : {https://fhir.nhs.uk/R4/CodeSystem/UKCore-SourceOfAdmission code '19' = 'Usual place of residence unless listed below, for example, a private dwelling whether owner occupied or owned by Local Authority, housing association or other landlord. This includes wardened accommodation but not residential accommodation where health care is provided. It also includes Patients with no fixed abode.', given as 'Usual place of residence'})</span></td></tr></table><h3>Locations</h3><table class=\"grid\"><tr><td>-</td><td><b>Location</b></td><td><b>Status</b></td></tr><tr><td>*</td><td><a href=\"#backboneelement_335f4089-8979-4bd2-96db-6137c1483ecc\">South Yorks 999. Generated Summary: unknown resource entry</a></td><td>active</td></tr></table></div>"
        },
        "identifier": [
          {
            "system": "http://terminology.hl7.org/CodeSystem/v2-0203",
            "value": "2141"
          }
        ],
        "status": "in-progress",
        "class": {
          "system": "http://terminology.hl7.org/CodeSystem/v3-ActCode",
          "code": "AMB",
          "display": "ambulatory"
        },
        "type": [
          {
            "coding": [
              {
                "system": "https://fhir.nhs.uk/R4/CodeSystem/UKCore-AdmissionMethod",
                "code": "13"
              }
            ]
          },
          {
            "coding": [
              {
                "system": "https://fhir.nhs.uk/STU3/CodeSystem/DCH-Specialty-1",
                "code": "300"
              }
            ]
          }
        ],
        "subject": {
          "reference": "urn:oid:a4776fe1-6bb4-4e3c-af5b-d48e1ee873b4"
        },
        "participant": [
          {
            "type": [
              {
                "coding": [
                  {
                    "system": "http://terminology.hl7.org/CodeSystem/v3-ParticipationType",
                    "code": "ATND",
                    "display": "attender"
                  }
                ]
              }
            ],
            "individual": {
              "identifier": {
                "system": "https://fhir.hl7.org.uk/Id/gmc-number",
                "value": "C3456789"
              },
              "display": "Dr Samuel Darwin"
            }
          },
          {
            "type": [
              {
                "coding": [
                  {
                    "system": "http://terminology.hl7.org/CodeSystem/v3-ParticipationType",
                    "code": "ADM",
                    "display": "admitter"
                  }
                ]
              }
            ],
            "individual": {
              "identifier": {
                "system": "https://fhir.hl7.org.uk/Id/gmc-number",
                "value": "C3456789"
              },
              "display": "Dr Samuel Darwin"
            }
          },
          {
            "type": [
              {
                "coding": [
                  {
                    "system": "http://terminology.hl7.org/CodeSystem/v3-ParticipationType",
                    "code": "CON",
                    "display": "consultant"
                  }
                ]
              }
            ],
            "individual": {
              "identifier": {
                "system": "https://fhir.hl7.org.uk/Id/gmc-number",
                "value": "C3456789"
              },
              "display": "Dr Samuel Darwin"
            }
          },
          {
            "type": [
              {
                "coding": [
                  {
                    "system": "http://terminology.hl7.org/CodeSystem/v3-ParticipationType",
                    "code": "REF",
                    "display": "referrer"
                  }
                ]
              }
            ],
            "individual": {
              "identifier": {
                "system": "https://fhir.hl7.org.uk/Id/gmc-number",
                "value": "G5612908"
              },
              "display": "Dr Gregory Townley"
            }
          }
        ],
        "period": {
          "start": "2010-11-01T16:00:00+00:00"
        },
        "hospitalization": {
          "admitSource": {
            "coding": [
              {
                "system": "https://fhir.nhs.uk/R4/CodeSystem/UKCore-SourceOfAdmission",
                "code": "19",
                "display": "Usual place of residence"
              }
            ]
          }
        },
        "location": [
          {
            "location": {
              "reference": "urn:oid:335f4089-8979-4bd2-96db-6137c1483ecc",
              "display": "South Yorks 999"
            },
            "status": "active"
          }
        ]
      }
    },
    {
      "fullUrl": "urn:oid:a4776fe1-6bb4-4e3c-af5b-d48e1ee873b4",
      "resource": {
        "resourceType": "Patient",
        "id": "a4776fe1-6bb4-4e3c-af5b-d48e1ee873b4",
        "text": {
          "status": "generated",
          "div": "<div xmlns=\"http://www.w3.org/1999/xhtml\"><p><b>Generated Narrative with Details</b></p><p><b>id</b>: a4776fe1-6bb4-4e3c-af5b-d48e1ee873b4</p><p><b>identifier</b>: 3333333333</p><p><b>name</b>: FREDRICA SMITH </p><p><b>telecom</b>: ph: +441234567890(HOME)</p><p><b>gender</b>: female</p><p><b>birthDate</b>: 1965-12-13</p><p><b>address</b>: MALTON YO32 5TT (HOME)</p><h3>Contacts</h3><table class=\"grid\"><tr><td>-</td><td><b>Name</b></td><td><b>Address</b></td></tr><tr><td>*</td><td>FRANCESCA SMITH </td><td>MALTON YO32 5TT (HOME)</td></tr></table><p><b>generalPractitioner</b>: Dr Gregory Townley</p><p><b>managingOrganization</b>: MALTON GP PRACTICE</p></div>"
        },
        "identifier": [
          {
            "extension": [
              {
                "url": "https://fhir.nhs.uk/R4/StructureDefinition/Extension-UKCore-NHSNumberVerificationStatus",
                "valueCodeableConcept": {
                  "coding": [
                    {
                      "system": "https://fhir.nhs.uk/R4/CodeSystem/UKCore-NHSNumberVerificationStatus",
                      "code": "01"
                    }
                  ]
                }
              }
            ],
            "system": "https://fhir.nhs.uk/Id/nhs-number",
            "value": "3333333333"
          }
        ],
        "name": [
          {
            "family": "SMITH",
            "given": [
              "FREDRICA"
            ],
            "prefix": [
              "MRS"
            ]
          }
        ],
        "telecom": [
          {
            "system": "phone",
            "value": "+441234567890",
            "use": "home"
          }
        ],
        "gender": "female",
        "birthDate": "1965-12-13",
        "address": [
          {
            "use": "home",
            "city": "MALTON",
            "district": "NORTH YORKSHIRE",
            "postalCode": "YO32 5TT"
          }
        ],
        "contact": [
          {
            "name": {
              "family": "SMITH",
              "given": [
                "FRANCESCA"
              ],
              "prefix": [
                "MRS"
              ]
            },
            "address": {
              "use": "home",
              "city": "MALTON",
              "district": "NORTH YORKSHIRE",
              "postalCode": "YO32 5TT"
            }
          }
        ],
        "generalPractitioner": [
          {
            "identifier": {
              "system": "https://fhir.hl7.org.uk/Id/gmc-number",
              "value": "G5612908"
            },
            "display": "Dr Gregory Townley"
          }
        ],
        "managingOrganization": {
          "identifier": {
            "system": "https://fhir.nhs.uk/Id/ods-organization-code",
            "value": "Y06601"
          },
          "display": "MALTON GP PRACTICE"
        }
      }
    },
    {
      "fullUrl": "urn:oid:335f4089-8979-4bd2-96db-6137c1483ecc",
      "resource": {
        "resourceType": "Location",
        "id": "335f4089-8979-4bd2-96db-6137c1483ecc",
        "text": {
          "status": "generated",
          "div": "<div xmlns=\"http://www.w3.org/1999/xhtml\"><p><b>Generated Narrative with Details</b></p><p><b>id</b>: 335f4089-8979-4bd2-96db-6137c1483ecc</p><p><b>identifier</b>: 123543</p><p><b>name</b>: Contact Location</p><p><b>type</b>: Patient's Residence <span style=\"background: LightGoldenRodYellow\">(Details : {http://terminology.hl7.org/CodeSystem/v3-RoleCode code 'PTRES' = 'Patient's Residence', given as 'Patient's Residence'})</span></p><p><b>physicalType</b>: House <span style=\"background: LightGoldenRodYellow\">(Details : {http://terminology.hl7.org/CodeSystem/location-physical-type code 'ho' = 'House', given as 'House'})</span></p><h3>Positions</h3><table class=\"grid\"><tr><td>-</td><td><b>Longitude</b></td><td><b>Latitude</b></td><td><b>Altitude</b></td></tr><tr><td>*</td><td>-51.5034</td><td>0.1276</td><td>0</td></tr></table></div>"
        },
        "identifier": [
          {
            "system": "https://fhir.yas.cas/Identifier",
            "value": "123543"
          }
        ],
        "name": "Contact Location",
        "type": [
          {
            "coding": [
              {
                "system": "http://terminology.hl7.org/CodeSystem/v3-RoleCode",
                "code": "PTRES",
                "display": "Patient's Residence"
              }
            ]
          }
        ],
        "physicalType": {
          "coding": [
            {
              "system": "http://terminology.hl7.org/CodeSystem/location-physical-type",
              "code": "ho",
              "display": "House"
            }
          ]
        },
        "position": {
          "longitude": -51.5034,
          "latitude": 0.1276,
          "altitude": 0
        }
      }
    },
    {
      "fullUrl": "urn:oid:19e6fd1e-cdb6-4b35-8d76-be67d2b9812d",
      "resource": {
        "resourceType": "QuestionnaireResponse",
        "id": "19e6fd1e-cdb6-4b35-8d76-be67d2b9812d",
        "meta": {
          "versionId": "1",
          "lastUpdated": "2020-03-18T15:42:27.744+00:00",
          "source": "#hzOOFYogzlto4aJM"
        },
        "text": {
          "status": "generated",
          "div": "<div xmlns=\"http://www.w3.org/1999/xhtml\"><p><b>Generated Narrative with Details</b></p><p><b>id</b>: 19e6fd1e-cdb6-4b35-8d76-be67d2b9812d</p><p><b>meta</b>: </p><p><b>identifier</b>: ebd4bc35-1369-4ae6-9909-0a12c7462d04</p><p><b>questionnaire</b>: <a href=\"https://fhir.nhsz.uk/Questionnaire/covid-19-public\">https://fhir.nhsz.uk/Questionnaire/covid-19-public</a></p><p><b>status</b>: completed</p><p><b>subject</b>: <a href=\"#backboneelement_a4776fe1-6bb4-4e3c-af5b-d48e1ee873b4\">Generated Summary: unknown resource entry</a></p><p><b>encounter</b>: <a href=\"#backboneelement_38eeb5d7-e689-4ec5-81d2-f51f3011c72c\">Generated Summary: unknown resource entry</a></p><p><b>authored</b>: 11 Mar 2020, 04:15:00</p><p><b>author</b>: Dr Gregory Townley</p><blockquote><p><b>item</b></p><p><b>linkId</b>: symptom</p><h3>Items</h3><table class=\"grid\"><tr><td>-</td></tr><tr><td>*</td></tr><tr><td>*</td></tr></table></blockquote><blockquote><p><b>item</b></p><p><b>linkId</b>: symptom</p><h3>Items</h3><table class=\"grid\"><tr><td>-</td></tr><tr><td>*</td></tr><tr><td>*</td></tr></table></blockquote><blockquote><p><b>item</b></p><p><b>linkId</b>: temp</p><p><b>text</b>: Body Temp</p><h3>Items</h3><table class=\"grid\"><tr><td>-</td></tr><tr><td>*</td></tr></table></blockquote><blockquote><p><b>item</b></p><p><b>linkId</b>: travel</p><h3>Items</h3><table class=\"grid\"><tr><td>-</td></tr><tr><td>*</td></tr><tr><td>*</td></tr></table></blockquote></div>"
        },
        "identifier": {
          "system": "urn:uuid",
          "value": "ebd4bc35-1369-4ae6-9909-0a12c7462d04"
        },
        "questionnaire": "https://fhir.nhsz.uk/Questionnaire/covid-19-public",
        "status": "completed",
        "subject": {
          "reference": "urn:oid:a4776fe1-6bb4-4e3c-af5b-d48e1ee873b4"
        },
        "encounter": {
          "reference": "urn:oid:38eeb5d7-e689-4ec5-81d2-f51f3011c72c"
        },
        "authored": "2020-03-11T14:15:00+10:00",
        "author": {
          "id": "A716058C-F9D5-4537-B1E7-D021BD2185A3",
          "identifier": {
            "system": "https://fhir.hl7.org.uk/Id/gmc-number",
            "value": "G5612908"
          },
          "display": "Dr Gregory Townley"
        },
        "item": [
          {
            "linkId": "symptom",
            "item": [
              {
                "linkId": "symptom-type",
                "text": "Symptom",
                "answer": [
                  {
                    "valueCoding": {
                      "system": "http://snomed.info/sct",
                      "code": "162397003",
                      "display": "Pain in throat"
                    }
                  }
                ]
              },
              {
                "linkId": "symptom-date",
                "text": "Onset",
                "answer": [
                  {
                    "valueDate": "2020-03-01"
                  }
                ]
              }
            ]
          },
          {
            "linkId": "symptom",
            "item": [
              {
                "linkId": "symptom-type",
                "text": "Symptom",
                "answer": [
                  {
                    "valueCoding": {
                      "system": "http://snomed.info/sct",
                      "code": "315642008",
                      "display": "Influenza-like symptoms"
                    }
                  }
                ]
              },
              {
                "linkId": "symptom-date",
                "text": "Onset",
                "answer": [
                  {
                    "valueDate": "2020-03-01"
                  }
                ]
              }
            ]
          },
          {
            "linkId": "temp",
            "text": "Body Temp",
            "item": [
              {
                "linkId": "tempcel",
                "text": "Temperature (0-100 Celsius)",
                "answer": [
                  {
                    "valueQuantity": {
                      "value": 35,
                      "system": "http://unitsofmeasure.org",
                      "code": "Cel"
                    }
                  }
                ]
              }
            ]
          },
          {
            "linkId": "travel",
            "item": [
              {
                "linkId": "recent",
                "text": "Recent Travel",
                "answer": [
                  {
                    "valueBoolean": true
                  }
                ]
              },
              {
                "linkId": "dateofreturn",
                "text": "Date of Return",
                "answer": [
                  {
                    "valueDate": "2020-03-02"
                  }
                ]
              }
            ]
          }
        ]
      }
    }
  ]
}