<?xml version="1.0" encoding="UTF-8"?>

<Bundle xmlns="http://hl7.org/fhir">
  <id value="covid19-service-request"/>
  <identifier>
    <value value="14038913245354"/>
  </identifier>
  <type value="message"/>
  <entry>
    <fullUrl value="urn:oid:3d4a07cc-ff85-45c2-8f60-202d5506db02"/>
    <resource>
      <MessageHeader>
        <id value="3d4a07cc-ff85-45c2-8f60-202d5506db02"/>
        <text>
          <status value="generated"/><div xmlns="http://www.w3.org/1999/xhtml"><p><b>Generated Narrative with Details</b></p><p><b>id</b>: 3d4a07cc-ff85-45c2-8f60-202d5506db02</p><p><b>event</b>: patient-referral (Details: [not stated] code patient-referral = 'patient-referral', stated as 'patient-referral')</p><h3>Destinations</h3><table class="grid"><tr><td>-</td><td><b>Name</b></td><td><b>Endpoint</b></td><td><b>Receiver</b></td></tr><tr><td>*</td><td>ROUTE</td><td><a href="http://fhirserver-env-1.eba-aepmzc4d.eu-west-2.elasticbeanstalk.com:8186/R4">http://fhirserver-env-1.eba-aepmzc4d.eu-west-2.elasticbeanstalk.com:8186/R4</a></td><td>DHU HEALTH CARE C.I.C</td></tr></table><p><b>sender</b>: YORKSHIRE AMBULANCE SERVICE NHS TRUST</p><h3>Sources</h3><table class="grid"><tr><td>-</td><td><b>Name</b></td><td><b>Endpoint</b></td></tr><tr><td>*</td><td>YORKSHIRE AMBULANCE SERVICE NHS TRUST</td><td><a href="http://fhirserver-env-1.eba-aepmzc4d.eu-west-2.yas.com/R4">http://fhirserver-env-1.eba-aepmzc4d.eu-west-2.yas.com/R4</a></td></tr></table><p><b>focus</b>: <a href="#backboneelement_6eb72362-cc88-4c54-bd05-a49885d370be">Generated Summary: unknown resource entry</a></p></div>
        </text>
        <eventCoding>
          <code value="patient-referral"/>
          <display value="patient-referral"/>
        </eventCoding>
        <destination>
          <name value="ROUTE"/>
          <endpoint value="http://fhirserver-env-1.eba-aepmzc4d.eu-west-2.elasticbeanstalk.com:8186/R4"/>
          <receiver>
            <identifier>
              <system value="https://fhir.nhs.uk/Id/ods-site-code"/>
              <value value="NNJ"/>
            </identifier>
            <display value="DHU HEALTH CARE C.I.C"/>
          </receiver>
        </destination>
        <sender>
          <identifier>
            <system value="https://fhir.nhs.uk/Id/ods-organization-code"/>
            <value value="RX8"/>
          </identifier>
          <display value="YORKSHIRE AMBULANCE SERVICE NHS TRUST"/>
        </sender>
        <source>
          <name value="YORKSHIRE AMBULANCE SERVICE NHS TRUST"/>
          <endpoint value="http://fhirserver-env-1.eba-aepmzc4d.eu-west-2.yas.com/R4"/>
        </source>
        <focus>
          <reference value="urn:oid:6eb72362-cc88-4c54-bd05-a49885d370be"/>
        </focus>
      </MessageHeader>
    </resource>
  </entry>
  <entry>
    <fullUrl value="urn:oid:6eb72362-cc88-4c54-bd05-a49885d370be"/>
    <resource>
      <ServiceRequest>
        <id value="6eb72362-cc88-4c54-bd05-a49885d370be"/>
        <meta>
          <lastUpdated value="2019-06-26T16:08:17.275+00:00"/>
        </meta>
        <text>
          <status value="generated"/><div xmlns="http://www.w3.org/1999/xhtml"><p><b>Generated Narrative with Details</b></p><p><b>id</b>: 6eb72362-cc88-4c54-bd05-a49885d370be</p><p><b>meta</b>: </p><p><b>identifier</b>: R3</p><p><b>status</b>: completed</p><p><b>intent</b>: order</p><p><b>subject</b>: <a href="#backboneelement_a4776fe1-6bb4-4e3c-af5b-d48e1ee873b4">MRS FREDICA SMITH. Generated Summary: unknown resource entry</a></p><p><b>encounter</b>: <a href="#backboneelement_38eeb5d7-e689-4ec5-81d2-f51f3011c72c">Generated Summary: unknown resource entry</a></p><p><b>authoredOn</b>: 8 Nov 2018, 12:30:00</p><p><b>requester</b>: </p><p><b>reasonCode</b>: Exposure to severe acute respiratory syndrome coronavirus 2 (event) <span style="background: LightGoldenRodYellow">(Details : {SNOMED CT code '840546002' = 'Exposure to 2019 novel coronavirus', given as 'Exposure to severe acute respiratory syndrome coronavirus 2 (event)'})</span></p><p><b>supportingInfo</b>: <a href="#backboneelement_19e6fd1e-cdb6-4b35-8d76-be67d2b9812d">Generated Summary: unknown resource entry</a></p></div>
        </text>
        <identifier>
          <system value="https://fhir.interopen.org/ReferralRequest/Identifier"/>
          <value value="R3"/>
        </identifier>
        <status value="completed"/>
        <intent value="order"/>
        <subject>
          <reference value="urn:oid:a4776fe1-6bb4-4e3c-af5b-d48e1ee873b4"/>
          <display value="MRS FREDICA SMITH"/>
        </subject>
        <encounter>
          <reference value="urn:oid:38eeb5d7-e689-4ec5-81d2-f51f3011c72c"/>
        </encounter>
        <authoredOn value="2018-11-08T12:30:00+00:00"/>
        <requester/>
        <reasonCode>
          <coding>
            <system value="http://snomed.info/sct"/>
            <code value="840546002"/>
            <display value="Exposure to severe acute respiratory syndrome coronavirus 2 (event)"/>
          </coding>
        </reasonCode>
        <supportingInfo>
          <reference value="urn:oid:19e6fd1e-cdb6-4b35-8d76-be67d2b9812d"/>
        </supportingInfo>
      </ServiceRequest>
    </resource>
  </entry>
  <entry>
    <fullUrl value="urn:oid:38eeb5d7-e689-4ec5-81d2-f51f3011c72c"/>
    <resource>
      <Encounter>
        <id value="38eeb5d7-e689-4ec5-81d2-f51f3011c72c"/>
        <text>
          <status value="generated"/><div xmlns="http://www.w3.org/1999/xhtml"><p><b>Generated Narrative with Details</b></p><p><b>id</b>: 38eeb5d7-e689-4ec5-81d2-f51f3011c72c</p><p><b>identifier</b>: 2141</p><p><b>status</b>: in-progress</p><p><b>class</b>: ambulatory (Details: http://terminology.hl7.org/CodeSystem/v3-ActCode code AMB = 'ambulatory', stated as 'ambulatory')</p><p><b>type</b>: Planned <span style="background: LightGoldenRodYellow">(Details : {https://fhir.nhs.uk/R4/CodeSystem/UKCore-AdmissionMethod code '13' = 'Planned)</span>, 300 <span style="background: LightGoldenRodYellow">(Details : {https://fhir.nhs.uk/STU3/CodeSystem/DCH-Specialty-1 code '300' = '300)</span></p><p><b>subject</b>: <a href="#backboneelement_a4776fe1-6bb4-4e3c-af5b-d48e1ee873b4">Generated Summary: unknown resource entry</a></p><blockquote><p><b>participant</b></p><p><b>type</b>: attender <span style="background: LightGoldenRodYellow">(Details : {http://terminology.hl7.org/CodeSystem/v3-ParticipationType code 'ATND' = 'attender', given as 'attender'})</span></p><p><b>individual</b>: Dr Samuel Darwin</p></blockquote><blockquote><p><b>participant</b></p><p><b>type</b>: admitter <span style="background: LightGoldenRodYellow">(Details : {http://terminology.hl7.org/CodeSystem/v3-ParticipationType code 'ADM' = 'admitter', given as 'admitter'})</span></p><p><b>individual</b>: Dr Samuel Darwin</p></blockquote><blockquote><p><b>participant</b></p><p><b>type</b>: consultant <span style="background: LightGoldenRodYellow">(Details : {http://terminology.hl7.org/CodeSystem/v3-ParticipationType code 'CON' = 'consultant', given as 'consultant'})</span></p><p><b>individual</b>: Dr Samuel Darwin</p></blockquote><blockquote><p><b>participant</b></p><p><b>type</b>: referrer <span style="background: LightGoldenRodYellow">(Details : {http://terminology.hl7.org/CodeSystem/v3-ParticipationType code 'REF' = 'referrer', given as 'referrer'})</span></p><p><b>individual</b>: Dr Gregory Townley</p></blockquote><p><b>period</b>: 1 Nov 2010, 16:00:00 --&gt; (ongoing)</p><h3>Hospitalizations</h3><table class="grid"><tr><td>-</td><td><b>AdmitSource</b></td></tr><tr><td>*</td><td>Usual place of residence <span style="background: LightGoldenRodYellow">(Details : {https://fhir.nhs.uk/R4/CodeSystem/UKCore-SourceOfAdmission code '19' = 'Usual place of residence unless listed below, for example, a private dwelling whether owner occupied or owned by Local Authority, housing association or other landlord. This includes wardened accommodation but not residential accommodation where health care is provided. It also includes Patients with no fixed abode.', given as 'Usual place of residence'})</span></td></tr></table><h3>Locations</h3><table class="grid"><tr><td>-</td><td><b>Location</b></td><td><b>Status</b></td></tr><tr><td>*</td><td><a href="#backboneelement_335f4089-8979-4bd2-96db-6137c1483ecc">South Yorks 999. Generated Summary: unknown resource entry</a></td><td>active</td></tr></table></div>
        </text>
        <identifier>
          <system value="http://terminology.hl7.org/CodeSystem/v2-0203"/>
          <value value="2141"/>
        </identifier>
        <status value="in-progress"/>
        <class>
          <system value="http://terminology.hl7.org/CodeSystem/v3-ActCode"/>
          <code value="AMB"/>
          <display value="ambulatory"/>
        </class>
        <type>
          <coding>
            <system value="https://fhir.nhs.uk/R4/CodeSystem/UKCore-AdmissionMethod"/>
            <code value="13"/>
          </coding>
        </type>
        <type>
          <coding>
            <system value="https://fhir.nhs.uk/STU3/CodeSystem/DCH-Specialty-1"/>
            <code value="300"/>
          </coding>
        </type>
        <subject>
          <reference value="urn:oid:a4776fe1-6bb4-4e3c-af5b-d48e1ee873b4"/>
        </subject>
        <participant>
          <type>
            <coding>
              <system value="http://terminology.hl7.org/CodeSystem/v3-ParticipationType"/>
              <code value="ATND"/>
              <display value="attender"/>
            </coding>
          </type>
          <individual>
            <identifier>
              <system value="https://fhir.hl7.org.uk/Id/gmc-number"/>
              <value value="C3456789"/>
            </identifier>
            <display value="Dr Samuel Darwin"/>
          </individual>
        </participant>
        <participant>
          <type>
            <coding>
              <system value="http://terminology.hl7.org/CodeSystem/v3-ParticipationType"/>
              <code value="ADM"/>
              <display value="admitter"/>
            </coding>
          </type>
          <individual>
            <identifier>
              <system value="https://fhir.hl7.org.uk/Id/gmc-number"/>
              <value value="C3456789"/>
            </identifier>
            <display value="Dr Samuel Darwin"/>
          </individual>
        </participant>
        <participant>
          <type>
            <coding>
              <system value="http://terminology.hl7.org/CodeSystem/v3-ParticipationType"/>
              <code value="CON"/>
              <display value="consultant"/>
            </coding>
          </type>
          <individual>
            <identifier>
              <system value="https://fhir.hl7.org.uk/Id/gmc-number"/>
              <value value="C3456789"/>
            </identifier>
            <display value="Dr Samuel Darwin"/>
          </individual>
        </participant>
        <participant>
          <type>
            <coding>
              <system value="http://terminology.hl7.org/CodeSystem/v3-ParticipationType"/>
              <code value="REF"/>
              <display value="referrer"/>
            </coding>
          </type>
          <individual>
            <identifier>
              <system value="https://fhir.hl7.org.uk/Id/gmc-number"/>
              <value value="G5612908"/>
            </identifier>
            <display value="Dr Gregory Townley"/>
          </individual>
        </participant>
        <period>
          <start value="2010-11-01T16:00:00+00:00"/>
        </period>
        <hospitalization>
          <admitSource>
            <coding>
              <system value="https://fhir.nhs.uk/R4/CodeSystem/UKCore-SourceOfAdmission"/>
              <code value="19"/>
              <display value="Usual place of residence"/>
            </coding>
          </admitSource>
        </hospitalization>
        <location>
          <location>
            <reference value="urn:oid:335f4089-8979-4bd2-96db-6137c1483ecc"/>
            <display value="South Yorks 999"/>
          </location>
          <status value="active"/>
        </location>
      </Encounter>
    </resource>
  </entry>
  <entry>
    <fullUrl value="urn:oid:a4776fe1-6bb4-4e3c-af5b-d48e1ee873b4"/>
    <resource>
      <Patient>
        <id value="a4776fe1-6bb4-4e3c-af5b-d48e1ee873b4"/>
        <text>
          <status value="generated"/><div xmlns="http://www.w3.org/1999/xhtml"><p><b>Generated Narrative with Details</b></p><p><b>id</b>: a4776fe1-6bb4-4e3c-af5b-d48e1ee873b4</p><p><b>identifier</b>: 3333333333</p><p><b>name</b>: FREDRICA SMITH </p><p><b>telecom</b>: ph: +441234567890(HOME)</p><p><b>gender</b>: female</p><p><b>birthDate</b>: 1965-12-13</p><p><b>address</b>: MALTON YO32 5TT (HOME)</p><h3>Contacts</h3><table class="grid"><tr><td>-</td><td><b>Name</b></td><td><b>Address</b></td></tr><tr><td>*</td><td>FRANCESCA SMITH </td><td>MALTON YO32 5TT (HOME)</td></tr></table><p><b>generalPractitioner</b>: Dr Gregory Townley</p><p><b>managingOrganization</b>: MALTON GP PRACTICE</p></div>
        </text>
        <identifier>
          <extension url="https://fhir.nhs.uk/R4/StructureDefinition/Extension-UKCore-NHSNumberVerificationStatus">
            <valueCodeableConcept>
              <coding>
                <system value="https://fhir.nhs.uk/R4/CodeSystem/UKCore-NHSNumberVerificationStatus"/>
                <code value="01"/>
              </coding>
            </valueCodeableConcept>
          </extension>
          <system value="https://fhir.nhs.uk/Id/nhs-number"/>
          <value value="3333333333"/>
        </identifier>
        <name>
          <family value="SMITH"/>
          <given value="FREDRICA"/>
          <prefix value="MRS"/>
        </name>
        <telecom>
          <system value="phone"/>
          <value value="+441234567890"/>
          <use value="home"/>
        </telecom>
        <gender value="female"/>
        <birthDate value="1965-12-13"/>
        <address>
          <use value="home"/>
          <city value="MALTON"/>
          <district value="NORTH YORKSHIRE"/>
          <postalCode value="YO32 5TT"/>
        </address>
        <contact>
          <name>
            <family value="SMITH"/>
            <given value="FRANCESCA"/>
            <prefix value="MRS"/>
          </name>
          <address>
            <use value="home"/>
            <city value="MALTON"/>
            <district value="NORTH YORKSHIRE"/>
            <postalCode value="YO32 5TT"/>
          </address>
        </contact>
        <generalPractitioner>
          <identifier>
            <system value="https://fhir.hl7.org.uk/Id/gmc-number"/>
            <value value="G5612908"/>
          </identifier>
          <display value="Dr Gregory Townley"/>
        </generalPractitioner>
        <managingOrganization>
          <identifier>
            <system value="https://fhir.nhs.uk/Id/ods-organization-code"/>
            <value value="Y06601"/>
          </identifier>
          <display value="MALTON GP PRACTICE"/>
        </managingOrganization>
      </Patient>
    </resource>
  </entry>
  <entry>
    <fullUrl value="urn:oid:335f4089-8979-4bd2-96db-6137c1483ecc"/>
    <resource>
      <Location>
        <id value="335f4089-8979-4bd2-96db-6137c1483ecc"/>
        <text>
          <status value="generated"/><div xmlns="http://www.w3.org/1999/xhtml"><p><b>Generated Narrative with Details</b></p><p><b>id</b>: 335f4089-8979-4bd2-96db-6137c1483ecc</p><p><b>identifier</b>: 123543</p><p><b>name</b>: Contact Location</p><p><b>type</b>: Patient's Residence <span style="background: LightGoldenRodYellow">(Details : {http://terminology.hl7.org/CodeSystem/v3-RoleCode code 'PTRES' = 'Patient's Residence', given as 'Patient's Residence'})</span></p><p><b>physicalType</b>: House <span style="background: LightGoldenRodYellow">(Details : {http://terminology.hl7.org/CodeSystem/location-physical-type code 'ho' = 'House', given as 'House'})</span></p><h3>Positions</h3><table class="grid"><tr><td>-</td><td><b>Longitude</b></td><td><b>Latitude</b></td><td><b>Altitude</b></td></tr><tr><td>*</td><td>-51.5034</td><td>0.1276</td><td>0</td></tr></table></div>
        </text>
        <identifier>
          <system value="https://fhir.yas.cas/Identifier"/>
          <value value="123543"/>
        </identifier>
        <name value="Contact Location"/>
        <type>
          <coding>
            <system value="http://terminology.hl7.org/CodeSystem/v3-RoleCode"/>
            <code value="PTRES"/>
            <display value="Patient&#39;s Residence"/>
          </coding>
        </type>
        <physicalType>
          <coding>
            <system value="http://terminology.hl7.org/CodeSystem/location-physical-type"/>
            <code value="ho"/>
            <display value="House"/>
          </coding>
        </physicalType>
        <position>
          <longitude value="-51.5034"/>
          <latitude value="0.1276"/>
          <altitude value="0"/>
        </position>
      </Location>
    </resource>
  </entry>
  <entry>
    <fullUrl value="urn:oid:19e6fd1e-cdb6-4b35-8d76-be67d2b9812d"/>
    <resource>
      <QuestionnaireResponse>
        <id value="19e6fd1e-cdb6-4b35-8d76-be67d2b9812d"/>
        <meta>
          <versionId value="1"/>
          <lastUpdated value="2020-03-18T15:42:27.744+00:00"/>
          <source value="#hzOOFYogzlto4aJM"/>
        </meta>
        <text>
          <status value="generated"/><div xmlns="http://www.w3.org/1999/xhtml"><p><b>Generated Narrative with Details</b></p><p><b>id</b>: 19e6fd1e-cdb6-4b35-8d76-be67d2b9812d</p><p><b>meta</b>: </p><p><b>identifier</b>: ebd4bc35-1369-4ae6-9909-0a12c7462d04</p><p><b>questionnaire</b>: <a href="https://fhir.nhsz.uk/Questionnaire/covid-19-public">https://fhir.nhsz.uk/Questionnaire/covid-19-public</a></p><p><b>status</b>: completed</p><p><b>subject</b>: <a href="#backboneelement_a4776fe1-6bb4-4e3c-af5b-d48e1ee873b4">Generated Summary: unknown resource entry</a></p><p><b>encounter</b>: <a href="#backboneelement_38eeb5d7-e689-4ec5-81d2-f51f3011c72c">Generated Summary: unknown resource entry</a></p><p><b>authored</b>: 11 Mar 2020, 04:15:00</p><p><b>author</b>: Dr Gregory Townley</p><blockquote><p><b>item</b></p><p><b>linkId</b>: symptom</p><h3>Items</h3><table class="grid"><tr><td>-</td></tr><tr><td>*</td></tr><tr><td>*</td></tr></table></blockquote><blockquote><p><b>item</b></p><p><b>linkId</b>: symptom</p><h3>Items</h3><table class="grid"><tr><td>-</td></tr><tr><td>*</td></tr><tr><td>*</td></tr></table></blockquote><blockquote><p><b>item</b></p><p><b>linkId</b>: temp</p><p><b>text</b>: Body Temp</p><h3>Items</h3><table class="grid"><tr><td>-</td></tr><tr><td>*</td></tr></table></blockquote><blockquote><p><b>item</b></p><p><b>linkId</b>: travel</p><h3>Items</h3><table class="grid"><tr><td>-</td></tr><tr><td>*</td></tr><tr><td>*</td></tr></table></blockquote></div>
        </text>
        <identifier>
          <system value="urn:uuid"/>
          <value value="ebd4bc35-1369-4ae6-9909-0a12c7462d04"/>
        </identifier>
        <questionnaire value="https://fhir.nhsz.uk/Questionnaire/covid-19-public"/>
        <status value="completed"/>
        <subject>
          <reference value="urn:oid:a4776fe1-6bb4-4e3c-af5b-d48e1ee873b4"/>
        </subject>
        <encounter>
          <reference value="urn:oid:38eeb5d7-e689-4ec5-81d2-f51f3011c72c"/>
        </encounter>
        <authored value="2020-03-11T14:15:00+10:00"/>
        <author id="A716058C-F9D5-4537-B1E7-D021BD2185A3">
          <identifier>
            <system value="https://fhir.hl7.org.uk/Id/gmc-number"/>
            <value value="G5612908"/>
          </identifier>
          <display value="Dr Gregory Townley"/>
        </author>
        <item>
          <linkId value="symptom"/>
          <item>
            <linkId value="symptom-type"/>
            <text value="Symptom"/>
            <answer>
              <valueCoding>
                <system value="http://snomed.info/sct"/>
                <code value="162397003"/>
                <display value="Pain in throat"/>
              </valueCoding>
            </answer>
          </item>
          <item>
            <linkId value="symptom-date"/>
            <text value="Onset"/>
            <answer>
              <valueDate value="2020-03-01"/>
            </answer>
          </item>
        </item>
        <item>
          <linkId value="symptom"/>
          <item>
            <linkId value="symptom-type"/>
            <text value="Symptom"/>
            <answer>
              <valueCoding>
                <system value="http://snomed.info/sct"/>
                <code value="315642008"/>
                <display value="Influenza-like symptoms"/>
              </valueCoding>
            </answer>
          </item>
          <item>
            <linkId value="symptom-date"/>
            <text value="Onset"/>
            <answer>
              <valueDate value="2020-03-01"/>
            </answer>
          </item>
        </item>
        <item>
          <linkId value="temp"/>
          <text value="Body Temp"/>
          <item>
            <linkId value="tempcel"/>
            <text value="Temperature (0-100 Celsius)"/>
            <answer>
              <valueQuantity>
                <value value="35"/>
                <system value="http://unitsofmeasure.org"/>
                <code value="Cel"/>
              </valueQuantity>
            </answer>
          </item>
        </item>
        <item>
          <linkId value="travel"/>
          <item>
            <linkId value="recent"/>
            <text value="Recent Travel"/>
            <answer>
              <valueBoolean value="true"/>
            </answer>
          </item>
          <item>
            <linkId value="dateofreturn"/>
            <text value="Date of Return"/>
            <answer>
              <valueDate value="2020-03-02"/>
            </answer>
          </item>
        </item>
      </QuestionnaireResponse>
    </resource>
  </entry>
</Bundle>