{
  "resourceType": "Bundle",
  "id": "news2-report",
  "identifier": {
    "system": "https://fhir.mytrust.nhs.uk/Id/RCB/PAS",
    "value": "14038913245354"
  },
  "type": "message",
  "entry": [
    {
      "fullUrl": "urn:oid:22ed2deb-effa-408c-9437-d3c4975ff448",
      "resource": {
        "resourceType": "MessageHeader",
        "id": "22ed2deb-effa-408c-9437-d3c4975ff448",
        "text": {
          "status": "generated",
          "div": "<div xmlns=\"http://www.w3.org/1999/xhtml\"><p><b>Generated Narrative</b></p></div>"
        },
        "eventCoding": {
          "system": "https://project-wildfyre.github.io/careconnect-messaging-r4/CodeSystem/message-events",
          "code": "unsolicited-observation",
          "display": "Unsolicited Observations"
        },
        "destination": [
          {
            "name": "ROUTE",
            "target": {
              "display": "ROUTE"
            },
            "endpoint": "ROUTE"
          }
        ],
        "sender": {
          "identifier": {
            "system": "https://fhir.nhs.uk/Id/ods-organization-code",
            "value": "RCB"
          },
          "display": "RCB"
        },
        "source": {
          "name": "PAS",
          "endpoint": "PAS"
        },
        "focus": [
          {
            "reference": "urn:oid:3915b469-57b7-470f-942f-e276c4458d63"
          }
        ]
      }
    },
    {
      "fullUrl": "urn:oid:3915b469-57b7-470f-942f-e276c4458d63",
      "resource": {
        "resourceType": "DiagnosticReport",
        "id": "3915b469-57b7-470f-942f-e276c4458d63",
        "text": {
          "status": "generated",
          "div": "<div xmlns=\"http://www.w3.org/1999/xhtml\"><p><b>Generated Narrative</b></p></div>"
        },
        "identifier": [
          {
            "system": "https://fhir.mytrust.nhs.uk/Id/NK",
            "value": "108512374"
          }
        ],
        "status": "unknown",
        "code": {
          "coding": [
            {
              "system": "http://snomed.info/sct",
              "code": "118227000",
              "display": "Vital Signs"
            }
          ]
        },
        "subject": {
          "reference": "urn:oid:d980f514-8d01-4d6b-9b52-29436fda1231"
        },
        "effectivePeriod": {
          "start": "2018-05-21T13:45:05+01:00"
        },
        "result": [
          {
            "reference": "urn:oid:11842d63-f473-4374-a00d-4caffc94c0f5"
          },
          {
            "reference": "urn:oid:926b9534-c247-45da-916c-b5bbbfb3da6d"
          },
          {
            "reference": "urn:oid:ac30fbfd-a166-4ebf-acd0-89fc6a8e5e46"
          },
          {
            "reference": "urn:oid:87e13a1f-0173-415a-9f5d-66ac2746b382"
          },
          {
            "reference": "urn:oid:3d69129a-7c83-4fa4-adbb-d21a8d5d7d92"
          },
          {
            "reference": "urn:oid:6c87c7b5-632f-431d-b15d-fad1d93d360c"
          }
        ]
      }
    },
    {
      "fullUrl": "urn:oid:11842d63-f473-4374-a00d-4caffc94c0f5",
      "resource": {
        "resourceType": "Observation",
        "id": "11842d63-f473-4374-a00d-4caffc94c0f5",
        "text": {
          "status": "generated",
          "div": "<div xmlns=\"http://www.w3.org/1999/xhtml\"><p><b>Generated Narrative</b></p></div>"
        },
        "identifier": [
          {
            "system": "https://fhir.mytrust.nhs.uk/Id/NK",
            "value": "108512374-1"
          }
        ],
        "status": "final",
        "code": {
          "coding": [
            {
              "system": "http://snomed.info/sct",
              "code": "364075005",
              "display": "Heart Rate"
            }
          ]
        },
        "subject": {
          "reference": "urn:oid:d980f514-8d01-4d6b-9b52-29436fda1231"
        },
        "effectiveDateTime": "2018-05-11T22:05:25+01:00",
        "valueQuantity": {
          "value": 73.0,
          "unit": "/min"
        },
        "referenceRange": [
          {
            "text": "60-100"
          }
        ]
      }
    },
    {
      "fullUrl": "urn:oid:926b9534-c247-45da-916c-b5bbbfb3da6d",
      "resource": {
        "resourceType": "Observation",
        "id": "926b9534-c247-45da-916c-b5bbbfb3da6d",
        "text": {
          "status": "generated",
          "div": "<div xmlns=\"http://www.w3.org/1999/xhtml\"><p><b>Generated Narrative</b></p></div>"
        },
        "identifier": [
          {
            "system": "https://fhir.mytrust.nhs.uk/Id/NK",
            "value": "108512374-2"
          }
        ],
        "status": "final",
        "code": {
          "coding": [
            {
              "system": "http://snomed.info/sct",
              "code": "103228002",
              "display": "Blood oxygen saturation"
            }
          ]
        },
        "subject": {
          "reference": "urn:oid:d980f514-8d01-4d6b-9b52-29436fda1231"
        },
        "effectiveDateTime": "2018-05-11T22:05:25+01:00",
        "valueQuantity": {
          "value": 98.0,
          "unit": "%"
        },
        "referenceRange": [
          {
            "text": "94-100"
          }
        ]
      }
    },
    {
      "fullUrl": "urn:oid:ac30fbfd-a166-4ebf-acd0-89fc6a8e5e46",
      "resource": {
        "resourceType": "Observation",
        "id": "ac30fbfd-a166-4ebf-acd0-89fc6a8e5e46",
        "text": {
          "status": "generated",
          "div": "<div xmlns=\"http://www.w3.org/1999/xhtml\"><p><b>Generated Narrative</b></p></div>"
        },
        "identifier": [
          {
            "system": "https://fhir.mytrust.nhs.uk/Id/NK",
            "value": "108512374-3"
          }
        ],
        "status": "final",
        "code": {
          "coding": [
            {
              "system": "http://snomed.info/sct",
              "code": "722742002",
              "display": "Breathing room air"
            }
          ]
        },
        "subject": {
          "reference": "urn:oid:d980f514-8d01-4d6b-9b52-29436fda1231"
        }
      }
    },
    {
      "fullUrl": "urn:oid:87e13a1f-0173-415a-9f5d-66ac2746b382",
      "resource": {
        "resourceType": "Observation",
        "id": "87e13a1f-0173-415a-9f5d-66ac2746b382",
        "text": {
          "status": "generated",
          "div": "<div xmlns=\"http://www.w3.org/1999/xhtml\"><p><b>Generated Narrative</b></p></div>"
        },
        "identifier": [
          {
            "system": "https://fhir.mytrust.nhs.uk/Id/NK",
            "value": "108512374-4"
          }
        ],
        "status": "final",
        "code": {
          "coding": [
            {
              "system": "http://snomed.info/sct",
              "code": "1104441000000107",
              "display": "ACVPU (Alert Confusion Voice Pain Unresponsive) scale score"
            }
          ]
        },
        "subject": {
          "reference": "urn:oid:d980f514-8d01-4d6b-9b52-29436fda1231"
        },
        "valueCodeableConcept": {
          "coding": [
            {
              "system": "http://snomed.info/sct",
              "code": "248234008",
              "display": "Mentally alert"
            }
          ]
        }
      }
    },
    {
      "fullUrl": "urn:oid:3d69129a-7c83-4fa4-adbb-d21a8d5d7d92",
      "resource": {
        "resourceType": "Observation",
        "id": "3d69129a-7c83-4fa4-adbb-d21a8d5d7d92",
        "text": {
          "status": "generated",
          "div": "<div xmlns=\"http://www.w3.org/1999/xhtml\"><p><b>Generated Narrative</b></p></div>"
        },
        "identifier": [
          {
            "system": "https://fhir.mytrust.nhs.uk/Id/NK",
            "value": "108512374-5"
          }
        ],
        "status": "final",
        "code": {
          "coding": [
            {
              "system": "http://snomed.info/sct",
              "code": "86290005",
              "display": "Respiratory rate"
            }
          ]
        },
        "subject": {
          "reference": "urn:oid:d980f514-8d01-4d6b-9b52-29436fda1231"
        },
        "valueQuantity": {
          "value": 20.0,
          "unit": "/min"
        }
      }
    },
    {
      "fullUrl": "urn:oid:6c87c7b5-632f-431d-b15d-fad1d93d360c",
      "resource": {
        "resourceType": "Observation",
        "id": "6c87c7b5-632f-431d-b15d-fad1d93d360c",
        "text": {
          "status": "generated",
          "div": "<div xmlns=\"http://www.w3.org/1999/xhtml\"><p><b>Generated Narrative</b></p></div>"
        },
        "identifier": [
          {
            "system": "https://fhir.mytrust.nhs.uk/Id/NK",
            "value": "108512374-BP"
          }
        ],
        "status": "final",
        "code": {
          "coding": [
            {
              "system": "http://snomed.info/sct",
              "code": "75367002",
              "display": "Blood Pressure"
            }
          ]
        },
        "subject": {
          "reference": "urn:oid:d980f514-8d01-4d6b-9b52-29436fda1231"
        },
        "component": [
          {
            "code": {
              "coding": [
                {
                  "system": "http://snomed.info/sct",
                  "code": "72313002",
                  "display": "Systolic arterial pressure"
                }
              ]
            },
            "valueQuantity": {
              "value": 132.0,
              "unit": "mm[Hg]"
            }
          },
          {
            "code": {
              "coding": [
                {
                  "system": "http://snomed.info/sct",
                  "code": "1091811000000102",
                  "display": "Diastolic arterial pressure"
                }
              ]
            },
            "valueQuantity": {
              "value": 86.0,
              "unit": "mm[Hg]"
            }
          }
        ]
      }
    },
    {
      "fullUrl": "urn:oid:d980f514-8d01-4d6b-9b52-29436fda1231",
      "resource": {
        "resourceType": "Patient",
        "id": "d980f514-8d01-4d6b-9b52-29436fda1231",
        "text": {
          "status": "generated",
          "div": "<div xmlns=\"http://www.w3.org/1999/xhtml\"><p><b>Generated Narrative</b></p></div>"
        },
        "identifier": [
          {
            "extension": [
              {
                "url": "https://fhir.nhs.uk/R4/StructureDefinition/Extension-UKCore-NHSNumberVerificationStatus",
                "valueCodeableConcept": {
                  "coding": [
                    {
                      "system": "https://fhir.nhs.uk/R4/CodeSystem/UKCore-NHSNumberVerificationStatus",
                      "code": "01"
                    }
                  ]
                }
              }
            ],
            "system": "https://fhir.nhs.uk/Id/nhs-number",
            "value": "3333333333"
          }
        ],
        "name": [
          {
            "family": "SMITH",
            "given": [
              "FREDRICA"
            ],
            "prefix": [
              "MRS"
            ]
          }
        ],
        "telecom": [
          {
            "system": "phone",
            "value": "+441234567890",
            "use": "home"
          }
        ],
        "gender": "female",
        "birthDate": "1965-12-13",
        "address": [
          {
            "use": "home",
            "city": "MALTON",
            "district": "NORTH YORKSHIRE",
            "postalCode": "YO32 5TT"
          }
        ],
        "generalPractitioner": [
          {
            "identifier": {
              "system": "https://fhir.hl7.org.uk/Id/gmc-number",
              "value": "G5612908"
            },
            "display": "Dr Gregory Townley"
          }
        ],
        "managingOrganization": {
          "identifier": {
            "system": "https://fhir.nhs.uk/Id/ods-organization-code",
            "value": "Y06601"
          },
          "display": "MALTON GP PRACTICE"
        }
      }
    }
  ]
}