{
  "resourceType": "Bundle",
  "id": "notification-admit",
  "identifier": {
    "system": "https://fhir.mytrust.nhs.uk/Id/RCB/PAS",
    "value": "1391320453338055"
  },
  "type": "message",
  "entry": [
    {
      "fullUrl": "urn:oid:95675fed-25a6-4d75-8351-49707f9d3360",
      "resource": {
        "resourceType": "MessageHeader",
        "id": "95675fed-25a6-4d75-8351-49707f9d3360",
        "text": {
          "status": "generated",
          "div": "<div xmlns=\"http://www.w3.org/1999/xhtml\"><p><b>Generated Narrative</b></p></div>"
        },
        "eventCoding": {
          "system": "https://project-wildfyre.github.io/careconnect-messaging-r4/CodeSystem/message-events",
          "code": "notification-admit",
          "display": "notification-admit"
        },
        "destination": [
          {
            "name": "ROUTE",
            "target": {
              "display": "ROUTE"
            },
            "endpoint": "ROUTE"
          }
        ],
        "sender": {
          "identifier": {
            "system": "https://fhir.nhs.uk/Id/ods-organization-code",
            "value": "RCB"
          },
          "display": "RCB"
        },
        "source": {
          "name": "PAS",
          "endpoint": "PAS"
        },
        "focus": [
          {
            "reference": "urn:oid:506ab3bc-8efa-40bc-a7ad-1643d467eb4f"
          },
          {
            "reference": "urn:oid:a1cf4e55-a7bb-4867-a2bb-07619a67edd7"
          },
          {
            "reference": "urn:oid:1af1046d-f398-41d6-8ecc-be8ecf4c9ccd"
          }
        ]
      }
    },
    {
      "fullUrl": "urn:oid:506ab3bc-8efa-40bc-a7ad-1643d467eb4f",
      "resource": {
        "resourceType": "Encounter",
        "id": "506ab3bc-8efa-40bc-a7ad-1643d467eb4f",
        "text": {
          "status": "generated",
          "div": "<div xmlns=\"http://www.w3.org/1999/xhtml\"><p><b>Generated Narrative</b></p></div>"
        },
        "identifier": [
          {
            "system": "http://terminology.hl7.org/CodeSystem/v2-0203",
            "value": "2139"
          }
        ],
        "status": "in-progress",
        "class": {
          "system": "http://terminology.hl7.org/CodeSystem/v3-ActCode",
          "code": "IMP",
          "display": "inpatient encounter"
        },
        "type": [
          {
            "coding": [
              {
                "system": "https://fhir.nhs.uk/R4/CodeSystem/UKCore-AdmissionMethod",
                "code": "13"
              }
            ]
          },
          {
            "coding": [
              {
                "system": "https://fhir.nhs.uk/STU3/CodeSystem/DCH-Specialty-1",
                "code": "300"
              }
            ]
          }
        ],
        "subject": {
          "reference": "urn:oid:29703a7e-238a-4510-a249-ec68ffc8d69c"
        },
        "participant": [
          {
            "type": [
              {
                "coding": [
                  {
                    "system": "http://terminology.hl7.org/CodeSystem/v3-ParticipationType",
                    "code": "ATND",
                    "display": "attender"
                  }
                ]
              }
            ],
            "individual": {
              "identifier": {
                "system": "https://fhir.hl7.org.uk/Id/gmc-number",
                "value": "C3456789"
              },
              "display": "Dr Samuel Darwin"
            }
          },
          {
            "type": [
              {
                "coding": [
                  {
                    "system": "http://terminology.hl7.org/CodeSystem/v3-ParticipationType",
                    "code": "CON",
                    "display": "consultant"
                  }
                ]
              }
            ],
            "individual": {
              "identifier": {
                "system": "https://fhir.hl7.org.uk/Id/gmc-number",
                "value": "C3456789"
              },
              "display": "Dr Samuel Darwin"
            }
          },
          {
            "type": [
              {
                "coding": [
                  {
                    "system": "http://terminology.hl7.org/CodeSystem/v3-ParticipationType",
                    "code": "REF",
                    "display": "referrer"
                  }
                ]
              }
            ],
            "individual": {
              "identifier": {
                "system": "https://fhir.hl7.org.uk/Id/gmc-number",
                "value": "G5612908"
              },
              "display": "Dr Gregory Townley"
            }
          }
        ],
        "period": {
          "start": "2010-10-20T17:16:00+01:00"
        },
        "hospitalization": {
          "admitSource": {
            "coding": [
              {
                "system": "https://fhir.nhs.uk/R4/CodeSystem/UKCore-SourceOfAdmission",
                "code": "19"
              }
            ]
          }
        },
        "location": [
          {
            "location": {
              "reference": "urn:oid:dadd1c2a-e09e-4b86-b3e3-81da2d3ac5ef",
              "display": "OBS1"
            },
            "status": "active"
          }
        ]
      }
    },
    {
      "fullUrl": "urn:oid:29703a7e-238a-4510-a249-ec68ffc8d69c",
      "resource": {
        "resourceType": "Patient",
        "id": "29703a7e-238a-4510-a249-ec68ffc8d69c",
        "text": {
          "status": "generated",
          "div": "<div xmlns=\"http://www.w3.org/1999/xhtml\"><p><b>Generated Narrative</b></p></div>"
        },
        "identifier": [
          {
            "extension": [
              {
                "url": "https://fhir.nhs.uk/R4/StructureDefinition/Extension-UKCore-NHSNumberVerificationStatus",
                "valueCodeableConcept": {
                  "coding": [
                    {
                      "system": "https://fhir.nhs.uk/R4/CodeSystem/UKCore-NHSNumberVerificationStatus",
                      "code": "01"
                    }
                  ]
                }
              }
            ],
            "system": "https://fhir.nhs.uk/Id/nhs-number",
            "value": "3333333333"
          }
        ],
        "name": [
          {
            "family": "SMITH",
            "given": [
              "FREDRICA"
            ],
            "prefix": [
              "MRS"
            ]
          }
        ],
        "telecom": [
          {
            "system": "phone",
            "value": "+441234567890",
            "use": "home"
          }
        ],
        "gender": "female",
        "birthDate": "1965-12-13",
        "address": [
          {
            "use": "home",
            "city": "MALTON",
            "district": "NORTH YORKSHIRE",
            "postalCode": "YO32 5TT"
          }
        ],
        "contact": [
          {
            "name": {
              "family": "SMITH",
              "given": [
                "ALBERT"
              ],
              "prefix": [
                "MR"
              ]
            },
            "address": {
              "use": "home",
              "city": "MALTON",
              "district": "NORTH YORKSHIRE",
              "postalCode": "YO32 5TT"
            }
          }
        ],
        "generalPractitioner": [
          {
            "identifier": {
              "system": "https://fhir.hl7.org.uk/Id/gmc-number",
              "value": "G5612908"
            },
            "display": "Dr Gregory Townley"
          }
        ],
        "managingOrganization": {
          "identifier": {
            "system": "https://fhir.nhs.uk/Id/ods-organization-code",
            "value": "Y06601"
          },
          "display": "MALTON GP PRACTICE"
        }
      }
    },
    {
      "fullUrl": "urn:oid:dadd1c2a-e09e-4b86-b3e3-81da2d3ac5ef",
      "resource": {
        "resourceType": "Location",
        "id": "dadd1c2a-e09e-4b86-b3e3-81da2d3ac5ef",
        "text": {
          "status": "generated",
          "div": "<div xmlns=\"http://www.w3.org/1999/xhtml\"><p><b>Generated Narrative</b></p></div>"
        },
        "identifier": [
          {
            "system": "https://fhir.myepr.co.uk/Id/Ward",
            "value": "OBS1"
          }
        ],
        "name": "OBS1",
        "managingOrganization": {
          "identifier": {
            "system": "https://fhir.nhs.uk/Id/ods-organization-code",
            "value": "RCB"
          }
        },
        "partOf": {
          "identifier": {
            "system": "https://fhir.nhs.uk/Id/ods-site-code",
            "value": "RCB55"
          }
        }
      }
    },
    {
      "fullUrl": "urn:oid:a1cf4e55-a7bb-4867-a2bb-07619a67edd7",
      "resource": {
        "resourceType": "Condition",
        "id": "a1cf4e55-a7bb-4867-a2bb-07619a67edd7",
        "text": {
          "status": "generated",
          "div": "<div xmlns=\"http://www.w3.org/1999/xhtml\"><p><b>Generated Narrative</b></p></div>"
        },
        "identifier": [
          {
            "system": "http://terminology.hl7.org/CodeSystem/v2-0203",
            "value": "2139-N39.3"
          }
        ],
        "clinicalStatus": {
          "coding": [
            {
              "system": "http://terminology.hl7.org/CodeSystem/condition-clinical",
              "code": "active"
            }
          ]
        },
        "code": {
          "coding": [
            {
              "system": "http://hl7.org/fhir/sid/icd-10",
              "code": "N39.3",
              "display": "Stress Incontinence"
            }
          ]
        },
        "subject": {
          "reference": "urn:oid:29703a7e-238a-4510-a249-ec68ffc8d69c"
        },
        "encounter": {
          "reference": "urn:oid:506ab3bc-8efa-40bc-a7ad-1643d467eb4f"
        },
        "onsetDateTime": "2010-10-09T09:00:00+01:00",
        "asserter": {
          "identifier": {
            "system": "https://fhir.hl7.org.uk/Id/gmc-number",
            "value": "C3456789"
          },
          "display": "Dr Samuel Darwin"
        }
      }
    },
    {
      "fullUrl": "urn:oid:1af1046d-f398-41d6-8ecc-be8ecf4c9ccd",
      "resource": {
        "resourceType": "Procedure",
        "id": "1af1046d-f398-41d6-8ecc-be8ecf4c9ccd",
        "text": {
          "status": "generated",
          "div": "<div xmlns=\"http://www.w3.org/1999/xhtml\"><p><b>Generated Narrative</b></p></div>"
        },
        "identifier": [
          {
            "system": "http://terminology.hl7.org/CodeSystem/v2-0203",
            "value": "2139-ZZS4"
          }
        ],
        "status": "completed",
        "code": {
          "coding": [
            {
              "system": "https://fhir.nhs.uk/Id/opcs-4",
              "code": "ZZS4",
              "display": "Colonic examination"
            }
          ]
        },
        "subject": {
          "reference": "urn:oid:29703a7e-238a-4510-a249-ec68ffc8d69c"
        },
        "encounter": {
          "reference": "urn:oid:506ab3bc-8efa-40bc-a7ad-1643d467eb4f"
        },
        "performedDateTime": "2010-10-20T20:56:00+01:00",
        "performer": [
          {
            "actor": {
              "identifier": {
                "system": "https://fhir.hl7.org.uk/Id/gmc-number",
                "value": "C3456789"
              },
              "display": "Dr Samuel Darwin"
            }
          }
        ]
      }
    }
  ]
}