<?xml version="1.0" encoding="UTF-8"?>

<Bundle xmlns="http://hl7.org/fhir">
  <id value="notification-admit"/>
  <identifier>
    <system value="https://fhir.mytrust.nhs.uk/Id/RCB/PAS"/>
    <value value="1391320453338055"/>
  </identifier>
  <type value="message"/>
  <entry>
    <fullUrl value="urn:oid:95675fed-25a6-4d75-8351-49707f9d3360"/>
    <resource>
      <MessageHeader>
        <id value="95675fed-25a6-4d75-8351-49707f9d3360"/>
        <text>
          <status value="generated"/><div xmlns="http://www.w3.org/1999/xhtml"><p><b>Generated Narrative</b></p></div>
        </text>
        <eventCoding>
          <system value="https://project-wildfyre.github.io/careconnect-messaging-r4/CodeSystem/message-events"/>
          <code value="notification-admit"/>
          <display value="notification-admit"/>
        </eventCoding>
        <destination>
          <name value="ROUTE"/>
          <target>
            <display value="ROUTE"/>
          </target>
          <endpoint value="ROUTE"/>
        </destination>
        <sender>
          <identifier>
            <system value="https://fhir.nhs.uk/Id/ods-organization-code"/>
            <value value="RCB"/>
          </identifier>
          <display value="RCB"/>
        </sender>
        <source>
          <name value="PAS"/>
          <endpoint value="PAS"/>
        </source>
        <focus>
          <reference value="urn:oid:506ab3bc-8efa-40bc-a7ad-1643d467eb4f"/>
        </focus>
        <focus>
          <reference value="urn:oid:a1cf4e55-a7bb-4867-a2bb-07619a67edd7"/>
        </focus>
        <focus>
          <reference value="urn:oid:1af1046d-f398-41d6-8ecc-be8ecf4c9ccd"/>
        </focus>
      </MessageHeader>
    </resource>
  </entry>
  <entry>
    <fullUrl value="urn:oid:506ab3bc-8efa-40bc-a7ad-1643d467eb4f"/>
    <resource>
      <Encounter>
        <id value="506ab3bc-8efa-40bc-a7ad-1643d467eb4f"/>
        <text>
          <status value="generated"/><div xmlns="http://www.w3.org/1999/xhtml"><p><b>Generated Narrative</b></p></div>
        </text>
        <identifier>
          <system value="http://terminology.hl7.org/CodeSystem/v2-0203"/>
          <value value="2139"/>
        </identifier>
        <status value="in-progress"/>
        <class>
          <system value="http://terminology.hl7.org/CodeSystem/v3-ActCode"/>
          <code value="IMP"/>
          <display value="inpatient encounter"/>
        </class>
        <type>
          <coding>
            <system value="https://fhir.nhs.uk/R4/CodeSystem/UKCore-AdmissionMethod"/>
            <code value="13"/>
          </coding>
        </type>
        <type>
          <coding>
            <system value="https://fhir.nhs.uk/STU3/CodeSystem/DCH-Specialty-1"/>
            <code value="300"/>
          </coding>
        </type>
        <subject>
          <reference value="urn:oid:29703a7e-238a-4510-a249-ec68ffc8d69c"/>
        </subject>
        <participant>
          <type>
            <coding>
              <system value="http://terminology.hl7.org/CodeSystem/v3-ParticipationType"/>
              <code value="ATND"/>
              <display value="attender"/>
            </coding>
          </type>
          <individual>
            <identifier>
              <system value="https://fhir.hl7.org.uk/Id/gmc-number"/>
              <value value="C3456789"/>
            </identifier>
            <display value="Dr Samuel Darwin"/>
          </individual>
        </participant>
        <participant>
          <type>
            <coding>
              <system value="http://terminology.hl7.org/CodeSystem/v3-ParticipationType"/>
              <code value="CON"/>
              <display value="consultant"/>
            </coding>
          </type>
          <individual>
            <identifier>
              <system value="https://fhir.hl7.org.uk/Id/gmc-number"/>
              <value value="C3456789"/>
            </identifier>
            <display value="Dr Samuel Darwin"/>
          </individual>
        </participant>
        <participant>
          <type>
            <coding>
              <system value="http://terminology.hl7.org/CodeSystem/v3-ParticipationType"/>
              <code value="REF"/>
              <display value="referrer"/>
            </coding>
          </type>
          <individual>
            <identifier>
              <system value="https://fhir.hl7.org.uk/Id/gmc-number"/>
              <value value="G5612908"/>
            </identifier>
            <display value="Dr Gregory Townley"/>
          </individual>
        </participant>
        <period>
          <start value="2010-10-20T17:16:00+01:00"/>
        </period>
        <hospitalization>
          <admitSource>
            <coding>
              <system value="https://fhir.nhs.uk/R4/CodeSystem/UKCore-SourceOfAdmission"/>
              <code value="19"/>
            </coding>
          </admitSource>
        </hospitalization>
        <location>
          <location>
            <reference value="urn:oid:dadd1c2a-e09e-4b86-b3e3-81da2d3ac5ef"/>
            <display value="OBS1"/>
          </location>
          <status value="active"/>
        </location>
      </Encounter>
    </resource>
  </entry>
  <entry>
    <fullUrl value="urn:oid:29703a7e-238a-4510-a249-ec68ffc8d69c"/>
    <resource>
      <Patient>
        <id value="29703a7e-238a-4510-a249-ec68ffc8d69c"/>
        <text>
          <status value="generated"/><div xmlns="http://www.w3.org/1999/xhtml"><p><b>Generated Narrative</b></p></div>
        </text>
        <identifier>
          <extension url="https://fhir.nhs.uk/R4/StructureDefinition/Extension-UKCore-NHSNumberVerificationStatus">
            <valueCodeableConcept>
              <coding>
                <system value="https://fhir.nhs.uk/R4/CodeSystem/UKCore-NHSNumberVerificationStatus"/>
                <code value="01"/>
              </coding>
            </valueCodeableConcept>
          </extension>
          <system value="https://fhir.nhs.uk/Id/nhs-number"/>
          <value value="3333333333"/>
        </identifier>
        <name>
          <family value="SMITH"/>
          <given value="FREDRICA"/>
          <prefix value="MRS"/>
        </name>
        <telecom>
          <system value="phone"/>
          <value value="+441234567890"/>
          <use value="home"/>
        </telecom>
        <gender value="female"/>
        <birthDate value="1965-12-13"/>
        <address>
          <use value="home"/>
          <city value="MALTON"/>
          <district value="NORTH YORKSHIRE"/>
          <postalCode value="YO32 5TT"/>
        </address>
        <contact>
          <name>
            <family value="SMITH"/>
            <given value="ALBERT"/>
            <prefix value="MR"/>
          </name>
          <address>
            <use value="home"/>
            <city value="MALTON"/>
            <district value="NORTH YORKSHIRE"/>
            <postalCode value="YO32 5TT"/>
          </address>
        </contact>
        <generalPractitioner>
          <identifier>
            <system value="https://fhir.hl7.org.uk/Id/gmc-number"/>
            <value value="G5612908"/>
          </identifier>
          <display value="Dr Gregory Townley"/>
        </generalPractitioner>
        <managingOrganization>
          <identifier>
            <system value="https://fhir.nhs.uk/Id/ods-organization-code"/>
            <value value="Y06601"/>
          </identifier>
          <display value="MALTON GP PRACTICE"/>
        </managingOrganization>
      </Patient>
    </resource>
  </entry>
  <entry>
    <fullUrl value="urn:oid:dadd1c2a-e09e-4b86-b3e3-81da2d3ac5ef"/>
    <resource>
      <Location>
        <id value="dadd1c2a-e09e-4b86-b3e3-81da2d3ac5ef"/>
        <text>
          <status value="generated"/><div xmlns="http://www.w3.org/1999/xhtml"><p><b>Generated Narrative</b></p></div>
        </text>
        <identifier>
          <system value="https://fhir.myepr.co.uk/Id/Ward"/>
          <value value="OBS1"/>
        </identifier>
        <name value="OBS1"/>
        <managingOrganization>
          <identifier>
            <system value="https://fhir.nhs.uk/Id/ods-organization-code"/>
            <value value="RCB"/>
          </identifier>
        </managingOrganization>
        <partOf>
          <identifier>
            <system value="https://fhir.nhs.uk/Id/ods-site-code"/>
            <value value="RCB55"/>
          </identifier>
        </partOf>
      </Location>
    </resource>
  </entry>
  <entry>
    <fullUrl value="urn:oid:a1cf4e55-a7bb-4867-a2bb-07619a67edd7"/>
    <resource>
      <Condition>
        <id value="a1cf4e55-a7bb-4867-a2bb-07619a67edd7"/>
        <text>
          <status value="generated"/><div xmlns="http://www.w3.org/1999/xhtml"><p><b>Generated Narrative</b></p></div>
        </text>
        <identifier>
          <system value="http://terminology.hl7.org/CodeSystem/v2-0203"/>
          <value value="2139-N39.3"/>
        </identifier>
        <clinicalStatus>
          <coding>
            <system value="http://terminology.hl7.org/CodeSystem/condition-clinical"/>
            <code value="active"/>
          </coding>
        </clinicalStatus>
        <code>
          <coding>
            <system value="http://hl7.org/fhir/sid/icd-10"/>
            <code value="N39.3"/>
            <display value="Stress Incontinence"/>
          </coding>
        </code>
        <subject>
          <reference value="urn:oid:29703a7e-238a-4510-a249-ec68ffc8d69c"/>
        </subject>
        <encounter>
          <reference value="urn:oid:506ab3bc-8efa-40bc-a7ad-1643d467eb4f"/>
        </encounter>
        <onsetDateTime value="2010-10-09T09:00:00+01:00"/>
        <asserter>
          <identifier>
            <system value="https://fhir.hl7.org.uk/Id/gmc-number"/>
            <value value="C3456789"/>
          </identifier>
          <display value="Dr Samuel Darwin"/>
        </asserter>
      </Condition>
    </resource>
  </entry>
  <entry>
    <fullUrl value="urn:oid:1af1046d-f398-41d6-8ecc-be8ecf4c9ccd"/>
    <resource>
      <Procedure>
        <id value="1af1046d-f398-41d6-8ecc-be8ecf4c9ccd"/>
        <text>
          <status value="generated"/><div xmlns="http://www.w3.org/1999/xhtml"><p><b>Generated Narrative</b></p></div>
        </text>
        <identifier>
          <system value="http://terminology.hl7.org/CodeSystem/v2-0203"/>
          <value value="2139-ZZS4"/>
        </identifier>
        <status value="completed"/>
        <code>
          <coding>
            <system value="https://fhir.nhs.uk/Id/opcs-4"/>
            <code value="ZZS4"/>
            <display value="Colonic examination"/>
          </coding>
        </code>
        <subject>
          <reference value="urn:oid:29703a7e-238a-4510-a249-ec68ffc8d69c"/>
        </subject>
        <encounter>
          <reference value="urn:oid:506ab3bc-8efa-40bc-a7ad-1643d467eb4f"/>
        </encounter>
        <performedDateTime value="2010-10-20T20:56:00+01:00"/>
        <performer>
          <actor>
            <identifier>
              <system value="https://fhir.hl7.org.uk/Id/gmc-number"/>
              <value value="C3456789"/>
            </identifier>
            <display value="Dr Samuel Darwin"/>
          </actor>
        </performer>
      </Procedure>
    </resource>
  </entry>
</Bundle>